trial,type,wf,response,RT,correct,subj,length,delay,block
0,lure,HF,0,1.675999999,1,0,Long,Immed,b0
1,lure,LF,0,0.912999988,1,0,Long,Immed,b0
2,lure,HF,0,0.809000015,1,0,Long,Immed,b0
3,target,HF,1,0.86500001,1,0,Long,Immed,b0
4,target,LF,1,0.680999994,1,0,Long,Immed,b0
5,target,LF,1,0.625,1,0,Long,Immed,b0
6,lure,LF,0,1.024999976,1,0,Long,Immed,b0
7,target,LF,1,0.681999981,1,0,Long,Immed,b0
8,lure,HF,1,0.704999983,0,0,Long,Immed,b0
9,target,HF,1,1.248999953,1,0,Long,Immed,b0
10,target,HF,0,0.721000016,0,0,Long,Immed,b0
11,target,HF,1,0.760999978,1,0,Long,Immed,b0
12,lure,LF,0,0.689999998,1,0,Long,Immed,b0
13,target,LF,1,1.450000048,1,0,Long,Immed,b0
14,lure,LF,0,0.665000021,1,0,Long,Immed,b0
15,target,HF,0,0.873000026,0,0,Long,Immed,b0
16,target,LF,1,1.304999948,1,0,Long,Immed,b0
17,lure,LF,0,0.728999972,1,0,Long,Immed,b0
18,lure,HF,0,0.68900001,1,0,Long,Immed,b0
19,target,LF,1,1.049000025,1,0,Long,Immed,b0
20,lure,HF,0,0.704999983,1,0,Long,Immed,b0
21,target,HF,1,0.680999994,1,0,Long,Immed,b0
22,target,LF,1,0.962000012,1,0,Long,Immed,b0
23,lure,HF,0,0.680999994,1,0,Long,Immed,b0
24,lure,HF,0,0.777999997,1,0,Long,Immed,b1
25,target,HF,1,0.713,1,0,Long,Immed,b1
26,lure,LF,0,0.769999981,1,0,Long,Immed,b1
27,lure,LF,0,0.809000015,1,0,Long,Immed,b1
28,lure,HF,0,0.760999978,1,0,Long,Immed,b1
29,target,HF,1,0.800999999,1,0,Long,Immed,b1
30,lure,HF,0,0.800999999,1,0,Long,Immed,b1
31,lure,LF,0,0.800999999,1,0,Long,Immed,b1
32,target,HF,1,0.68900001,1,0,Long,Immed,b1
33,lure,HF,0,0.873000026,1,0,Long,Immed,b1
34,lure,LF,0,0.976999998,1,0,Long,Immed,b1
35,lure,LF,0,0.704999983,1,0,Long,Immed,b1
36,lure,HF,0,0.728999972,1,0,Long,Immed,b1
37,target,HF,1,0.768999994,1,0,Long,Immed,b1
38,target,LF,1,0.912999988,1,0,Long,Immed,b1
39,target,LF,1,0.769999981,1,0,Long,Immed,b1
40,target,HF,1,0.665000021,1,0,Long,Immed,b1
41,lure,HF,0,0.809000015,1,0,Long,Immed,b1
42,target,HF,1,0.633000016,1,0,Long,Immed,b1
43,target,LF,1,0.625,1,0,Long,Immed,b1
44,target,LF,1,0.736999989,1,0,Long,Immed,b1
45,lure,HF,0,0.753000021,1,0,Long,Immed,b1
46,target,HF,1,0.56099999,1,0,Long,Immed,b1
47,target,HF,1,1.057000041,1,0,Long,Immed,b1
48,target,LF,1,0.809000015,1,0,Long,Immed,b2
49,lure,HF,0,0.992999971,1,0,Long,Immed,b2
50,target,LF,1,1.032999992,1,0,Long,Immed,b2
51,target,LF,1,0.873000026,1,0,Long,Immed,b2
52,target,LF,1,0.848999977,1,0,Long,Immed,b2
53,target,HF,1,0.569000006,1,0,Long,Immed,b2
54,lure,HF,0,0.792999983,1,0,Long,Immed,b2
55,target,HF,1,0.657000005,1,0,Long,Immed,b2
56,lure,LF,0,1.154000044,1,0,Long,Immed,b2
57,target,LF,0,0.768999994,0,0,Long,Immed,b2
58,lure,HF,0,0.713,1,0,Long,Immed,b2
59,target,HF,0,0.665000021,0,0,Long,Immed,b2
60,lure,HF,0,0.753000021,1,0,Long,Immed,b2
61,lure,LF,0,0.713,1,0,Long,Immed,b2
62,target,LF,1,0.601000011,1,0,Long,Immed,b2
63,target,HF,1,0.985000014,1,0,Long,Immed,b2
64,target,LF,1,1.041000009,1,0,Long,Immed,b2
65,target,HF,1,1.024999976,1,0,Long,Immed,b2
66,lure,LF,0,1.088999987,1,0,Long,Immed,b2
67,lure,LF,0,0.769999981,1,0,Long,Immed,b2
68,target,HF,1,0.904999971,1,0,Long,Immed,b2
69,lure,LF,0,0.745999992,1,0,Long,Immed,b2
70,target,HF,0,1.090000033,0,0,Long,Immed,b2
71,lure,LF,0,0.768999994,1,0,Long,Immed,b2
72,lure,LF,0,1.097000003,1,0,Long,Immed,b3
73,lure,HF,0,1.409000039,1,0,Long,Immed,b3
74,lure,LF,0,0.736999989,1,0,Long,Immed,b3
75,lure,LF,0,1.113000035,1,0,Long,Immed,b3
76,target,HF,1,0.818000019,1,0,Long,Immed,b3
77,lure,LF,0,0.800999999,1,0,Long,Immed,b3
78,lure,HF,0,0.968999982,1,0,Long,Immed,b3
79,lure,HF,0,0.873000026,1,0,Long,Immed,b3
80,target,HF,1,1.152999997,1,0,Long,Immed,b3
81,target,LF,1,0.86500001,1,0,Long,Immed,b3
82,lure,LF,1,0.86500001,0,0,Long,Immed,b3
83,target,LF,1,0.753000021,1,0,Long,Immed,b3
84,lure,HF,0,0.737999976,1,0,Long,Immed,b3
85,target,LF,1,0.921000004,1,0,Long,Immed,b3
86,lure,HF,0,0.810000002,1,0,Long,Immed,b3
87,target,LF,1,0.792999983,1,0,Long,Immed,b3
88,lure,HF,0,0.833000004,1,0,Long,Immed,b3
89,target,LF,1,0.904999971,1,0,Long,Immed,b3
90,lure,HF,0,0.944999993,1,0,Long,Immed,b3
91,lure,LF,0,0.800999999,1,0,Long,Immed,b3
92,lure,LF,1,0.953000009,0,0,Long,Immed,b3
93,target,LF,1,1.241000056,1,0,Long,Immed,b3
94,target,HF,0,0.753000021,0,0,Long,Immed,b3
95,lure,LF,0,0.912999988,1,0,Long,Immed,b3
0,target,LF,1,1.34800005,1,0,Long,Delay,b0
1,lure,LF,0,0.873000026,1,0,Long,Delay,b0
2,lure,HF,1,1.200999975,0,0,Long,Delay,b0
3,lure,HF,0,0.649999976,1,0,Long,Delay,b0
4,lure,LF,0,0.873000026,1,0,Long,Delay,b0
5,target,HF,1,0.760999978,1,0,Long,Delay,b0
6,lure,LF,1,0.785000026,0,0,Long,Delay,b0
7,lure,HF,0,0.85799998,1,0,Long,Delay,b0
8,lure,HF,0,0.961000025,1,0,Long,Delay,b0
9,lure,HF,0,0.841000021,1,0,Long,Delay,b0
10,lure,HF,0,0.753000021,1,0,Long,Delay,b0
11,target,LF,1,0.944999993,1,0,Long,Delay,b0
12,lure,LF,0,0.785000026,1,0,Long,Delay,b0
13,target,HF,0,0.77700001,0,0,Long,Delay,b0
14,target,LF,1,0.753000021,1,0,Long,Delay,b0
15,lure,LF,0,0.753000021,1,0,Long,Delay,b0
16,lure,LF,0,0.736999989,1,0,Long,Delay,b0
17,target,HF,1,0.592999995,1,0,Long,Delay,b0
18,target,HF,1,0.640999973,1,0,Long,Delay,b0
19,lure,LF,0,0.728999972,1,0,Long,Delay,b0
20,target,HF,1,0.610000014,1,0,Long,Delay,b0
21,lure,HF,0,0.680999994,1,0,Long,Delay,b0
22,lure,HF,0,0.786000013,1,0,Long,Delay,b0
23,target,LF,0,0.640999973,0,0,Long,Delay,b0
24,lure,LF,0,1.032999992,1,0,Long,Delay,b1
25,target,LF,1,0.633000016,1,0,Long,Delay,b1
26,target,HF,1,0.657000005,1,0,Long,Delay,b1
27,lure,LF,0,0.745000005,1,0,Long,Delay,b1
28,target,HF,1,0.697000027,1,0,Long,Delay,b1
29,target,LF,1,0.841000021,1,0,Long,Delay,b1
30,target,HF,1,0.721000016,1,0,Long,Delay,b1
31,target,LF,1,0.713,1,0,Long,Delay,b1
32,lure,LF,0,0.704999983,1,0,Long,Delay,b1
33,target,HF,1,0.704999983,1,0,Long,Delay,b1
34,lure,LF,0,0.640999973,1,0,Long,Delay,b1
35,target,HF,1,0.865999997,1,0,Long,Delay,b1
36,lure,HF,1,1.008999944,0,0,Long,Delay,b1
37,lure,LF,0,0.681999981,1,0,Long,Delay,b1
38,lure,LF,1,1.01699996,0,0,Long,Delay,b1
39,target,HF,1,0.625,1,0,Long,Delay,b1
40,target,HF,1,0.657000005,1,0,Long,Delay,b1
41,lure,HF,0,0.753000021,1,0,Long,Delay,b1
42,target,HF,1,0.665000021,1,0,Long,Delay,b1
43,lure,HF,0,0.968999982,1,0,Long,Delay,b1
44,lure,LF,0,0.704999983,1,0,Long,Delay,b1
45,target,LF,0,0.903999984,0,0,Long,Delay,b1
46,target,LF,1,0.665000021,1,0,Long,Delay,b1
47,target,LF,1,0.841000021,1,0,Long,Delay,b1
48,lure,HF,0,0.833000004,1,0,Long,Delay,b2
49,lure,HF,0,0.833000004,1,0,Long,Delay,b2
50,lure,HF,0,0.601000011,1,0,Long,Delay,b2
51,target,HF,0,0.648999989,0,0,Long,Delay,b2
52,target,HF,0,1.034000039,0,0,Long,Delay,b2
53,target,HF,1,0.713999987,1,0,Long,Delay,b2
54,target,LF,1,0.64200002,1,0,Long,Delay,b2
55,target,HF,1,0.736999989,1,0,Long,Delay,b2
56,target,HF,1,0.728999972,1,0,Long,Delay,b2
57,target,LF,1,0.833000004,1,0,Long,Delay,b2
58,target,LF,1,0.697000027,1,0,Long,Delay,b2
59,lure,HF,1,0.760999978,0,0,Long,Delay,b2
60,lure,LF,1,0.848999977,0,0,Long,Delay,b2
61,target,HF,1,0.721000016,1,0,Long,Delay,b2
62,target,HF,1,0.648999989,1,0,Long,Delay,b2
63,lure,LF,0,1.144999981,1,0,Long,Delay,b2
64,lure,HF,0,0.680999994,1,0,Long,Delay,b2
65,lure,HF,0,0.889999986,1,0,Long,Delay,b2
66,lure,LF,0,1.008999944,1,0,Long,Delay,b2
67,target,HF,1,0.873000026,1,0,Long,Delay,b2
68,lure,LF,0,0.848999977,1,0,Long,Delay,b2
69,target,LF,1,0.728999972,1,0,Long,Delay,b2
70,lure,LF,1,0.86500001,0,0,Long,Delay,b2
71,target,LF,1,0.68900001,1,0,Long,Delay,b2
72,target,LF,1,0.601000011,1,0,Long,Delay,b3
73,lure,HF,0,0.86500001,1,0,Long,Delay,b3
74,target,LF,1,0.648999989,1,0,Long,Delay,b3
75,lure,HF,0,0.880999982,1,0,Long,Delay,b3
76,target,HF,0,1.041000009,0,0,Long,Delay,b3
77,target,HF,0,0.68900001,0,0,Long,Delay,b3
78,target,HF,1,0.792999983,1,0,Long,Delay,b3
79,lure,HF,0,0.816999972,1,0,Long,Delay,b3
80,lure,HF,1,0.70599997,0,0,Long,Delay,b3
81,target,LF,1,0.856999993,1,0,Long,Delay,b3
82,lure,HF,1,0.713,0,0,Long,Delay,b3
83,lure,LF,0,0.833000004,1,0,Long,Delay,b3
84,lure,LF,0,0.856999993,1,0,Long,Delay,b3
85,target,LF,0,0.728999972,0,0,Long,Delay,b3
86,lure,LF,0,0.704999983,1,0,Long,Delay,b3
87,lure,HF,0,0.882000029,1,0,Long,Delay,b3
88,target,LF,0,0.728999972,0,0,Long,Delay,b3
89,target,LF,0,0.953000009,0,0,Long,Delay,b3
90,target,LF,0,0.86500001,0,0,Long,Delay,b3
91,lure,HF,0,0.760999978,1,0,Long,Delay,b3
92,lure,LF,1,0.760999978,0,0,Long,Delay,b3
93,target,LF,0,0.816999972,0,0,Long,Delay,b3
94,target,LF,0,0.841000021,0,0,Long,Delay,b3
95,lure,LF,0,0.753000021,1,0,Long,Delay,b3
0,target,HF,1,1.476999998,1,0,Short,Delay,b0
1,lure,HF,0,1.057000041,1,0,Short,Delay,b0
2,lure,LF,1,0.896000028,0,0,Short,Delay,b0
3,target,HF,1,0.927999973,1,0,Short,Delay,b0
4,lure,HF,0,0.824999988,1,0,Short,Delay,b0
5,lure,HF,0,0.880999982,1,0,Short,Delay,b0
6,lure,LF,0,0.921000004,1,0,Short,Delay,b0
7,lure,LF,1,0.888999999,0,0,Short,Delay,b0
8,target,LF,1,0.708999991,1,0,Short,Delay,b0
9,lure,LF,0,0.786000013,1,0,Short,Delay,b0
10,lure,HF,1,0.833000004,0,0,Short,Delay,b0
11,target,LF,1,0.745000005,1,0,Short,Delay,b0
12,target,HF,1,0.689999998,1,0,Short,Delay,b0
13,lure,HF,0,1.345000029,1,0,Short,Delay,b0
14,target,LF,1,0.721000016,1,0,Short,Delay,b0
15,lure,LF,0,0.68900001,1,0,Short,Delay,b0
16,target,LF,0,0.657000005,0,0,Short,Delay,b0
17,lure,HF,1,0.640999973,0,0,Short,Delay,b0
18,lure,LF,0,1.289000034,1,0,Short,Delay,b0
19,target,HF,0,0.816999972,0,0,Short,Delay,b0
20,target,LF,1,1.241000056,1,0,Short,Delay,b0
21,target,HF,1,0.633000016,1,0,Short,Delay,b0
22,target,HF,1,0.680999994,1,0,Short,Delay,b0
23,target,LF,0,0.976999998,0,0,Short,Delay,b0
0,target,HF,1,1.58099997,1,0,Short,Immed,b0
1,lure,LF,0,0.809000015,1,0,Short,Immed,b0
2,lure,LF,0,0.736999989,1,0,Short,Immed,b0
3,lure,HF,0,0.809000015,1,0,Short,Immed,b0
4,target,HF,0,0.792999983,0,0,Short,Immed,b0
5,target,LF,1,0.697000027,1,0,Short,Immed,b0
6,target,LF,1,0.697000027,1,0,Short,Immed,b0
7,target,LF,1,0.785000026,1,0,Short,Immed,b0
8,lure,LF,0,0.944999993,1,0,Short,Immed,b0
9,lure,LF,0,0.609000027,1,0,Short,Immed,b0
10,lure,HF,0,0.64200002,1,0,Short,Immed,b0
11,target,LF,1,0.665000021,1,0,Short,Immed,b0
12,target,HF,1,0.760999978,1,0,Short,Immed,b0
13,lure,LF,0,0.728999972,1,0,Short,Immed,b0
14,target,HF,1,0.842000008,1,0,Short,Immed,b0
15,target,HF,0,1.146000028,0,0,Short,Immed,b0
16,target,LF,1,0.848999977,1,0,Short,Immed,b0
17,target,LF,0,0.888999999,0,0,Short,Immed,b0
18,lure,LF,0,0.728999972,1,0,Short,Immed,b0
19,target,HF,1,0.856999993,1,0,Short,Immed,b0
20,lure,HF,0,0.745000005,1,0,Short,Immed,b0
21,lure,HF,0,0.768999994,1,0,Short,Immed,b0
22,lure,HF,0,0.816999972,1,0,Short,Immed,b0
23,lure,HF,0,0.680999994,1,0,Short,Immed,b0
0,target,LF,1,1.330000043,1,1,Short,Delay,b0
1,lure,HF,0,1.203999996,1,1,Short,Delay,b0
2,target,HF,1,0.716000021,1,1,Short,Delay,b0
3,target,HF,1,0.684000015,1,1,Short,Delay,b0
4,lure,HF,0,1.083999991,1,1,Short,Delay,b0
5,target,HF,1,0.658999979,1,1,Short,Delay,b0
6,target,HF,1,0.666999996,1,1,Short,Delay,b0
7,lure,LF,0,0.842999995,1,1,Short,Delay,b0
8,lure,HF,0,0.957000017,1,1,Short,Delay,b0
9,target,HF,1,0.749000013,1,1,Short,Delay,b0
10,target,HF,1,0.661000013,1,1,Short,Delay,b0
11,lure,HF,0,0.861000001,1,1,Short,Delay,b0
12,lure,LF,0,0.700999975,1,1,Short,Delay,b0
13,lure,LF,0,0.635999978,1,1,Short,Delay,b0
14,lure,LF,0,0.643999994,1,1,Short,Delay,b0
15,target,LF,1,0.787999988,1,1,Short,Delay,b0
16,target,LF,1,0.716000021,1,1,Short,Delay,b0
17,lure,LF,0,0.836000025,1,1,Short,Delay,b0
18,target,LF,1,0.620000005,1,1,Short,Delay,b0
19,lure,HF,0,0.731000006,1,1,Short,Delay,b0
20,lure,LF,0,0.611000001,1,1,Short,Delay,b0
21,lure,HF,0,0.699000001,1,1,Short,Delay,b0
22,target,LF,1,0.74000001,1,1,Short,Delay,b0
23,target,LF,1,0.699000001,1,1,Short,Delay,b0
0,target,HF,0,2.065000057,0,1,Long,Delay,b0
1,target,LF,1,0.802999973,1,1,Long,Delay,b0
2,lure,LF,0,0.771000028,1,1,Long,Delay,b0
3,target,HF,1,0.626999974,1,1,Long,Delay,b0
4,lure,HF,0,0.898999989,1,1,Long,Delay,b0
5,lure,HF,0,0.699999988,1,1,Long,Delay,b0
6,target,HF,1,0.66900003,1,1,Long,Delay,b0
7,lure,HF,0,0.685000002,1,1,Long,Delay,b0
8,target,HF,1,0.829999983,1,1,Long,Delay,b0
9,target,LF,1,0.709999979,1,1,Long,Delay,b0
10,lure,LF,0,0.677999973,1,1,Long,Delay,b0
11,lure,LF,0,0.819999993,1,1,Long,Delay,b0
12,target,LF,1,0.772000015,1,1,Long,Delay,b0
13,target,LF,1,0.667999983,1,1,Long,Delay,b0
14,lure,HF,0,0.723999977,1,1,Long,Delay,b0
15,lure,HF,0,0.707000017,1,1,Long,Delay,b0
16,lure,HF,0,0.795000017,1,1,Long,Delay,b0
17,lure,LF,0,0.699000001,1,1,Long,Delay,b0
18,lure,LF,0,0.683000028,1,1,Long,Delay,b0
19,lure,LF,0,0.731000006,1,1,Long,Delay,b0
20,lure,LF,0,0.666999996,1,1,Long,Delay,b0
21,lure,LF,0,1.195000052,1,1,Long,Delay,b0
22,lure,LF,0,0.95599997,1,1,Long,Delay,b0
23,target,HF,1,0.731000006,1,1,Long,Delay,b0
24,lure,HF,0,0.787,1,1,Long,Delay,b1
25,target,LF,1,0.63499999,1,1,Long,Delay,b1
26,target,LF,1,0.596000016,1,1,Long,Delay,b1
27,lure,HF,0,0.828000009,1,1,Long,Delay,b1
28,lure,HF,0,0.723999977,1,1,Long,Delay,b1
29,target,LF,1,0.772000015,1,1,Long,Delay,b1
30,target,HF,1,1.011000037,1,1,Long,Delay,b1
31,target,HF,1,0.93900001,1,1,Long,Delay,b1
32,lure,LF,0,0.707000017,1,1,Long,Delay,b1
33,lure,HF,0,1.299999952,1,1,Long,Delay,b1
34,target,HF,1,0.643000007,1,1,Long,Delay,b1
35,lure,LF,0,0.63499999,1,1,Long,Delay,b1
36,target,LF,1,0.707000017,1,1,Long,Delay,b1
37,lure,LF,0,0.866999984,1,1,Long,Delay,b1
38,target,LF,1,0.714999974,1,1,Long,Delay,b1
39,target,HF,1,0.717000008,1,1,Long,Delay,b1
40,lure,LF,0,0.778999984,1,1,Long,Delay,b1
41,target,LF,1,0.635999978,1,1,Long,Delay,b1
42,target,HF,1,0.716000021,1,1,Long,Delay,b1
43,lure,HF,0,0.781000018,1,1,Long,Delay,b1
44,lure,LF,0,0.74000001,1,1,Long,Delay,b1
45,target,HF,1,0.763000011,1,1,Long,Delay,b1
46,target,HF,0,0.658999979,0,1,Long,Delay,b1
47,target,LF,1,0.925000012,1,1,Long,Delay,b1
48,target,HF,1,0.605000019,1,1,Long,Delay,b2
49,target,HF,1,1.029000044,1,1,Long,Delay,b2
50,lure,LF,0,0.852999985,1,1,Long,Delay,b2
51,lure,HF,0,0.781000018,1,1,Long,Delay,b2
52,target,HF,0,1.034999967,0,1,Long,Delay,b2
53,lure,LF,0,0.779999971,1,1,Long,Delay,b2
54,target,HF,1,0.716000021,1,1,Long,Delay,b2
55,lure,LF,0,0.781000018,1,1,Long,Delay,b2
56,lure,HF,0,1.187999964,1,1,Long,Delay,b2
57,lure,HF,0,0.963999987,1,1,Long,Delay,b2
58,target,LF,1,0.691999972,1,1,Long,Delay,b2
59,lure,HF,0,0.690999985,1,1,Long,Delay,b2
60,lure,HF,0,0.707000017,1,1,Long,Delay,b2
61,target,HF,1,1.291000009,1,1,Long,Delay,b2
62,lure,HF,0,0.739000022,1,1,Long,Delay,b2
63,target,LF,1,0.739000022,1,1,Long,Delay,b2
64,lure,LF,0,0.707000017,1,1,Long,Delay,b2
65,target,HF,1,0.661000013,1,1,Long,Delay,b2
66,lure,LF,0,0.837000012,1,1,Long,Delay,b2
67,target,HF,1,0.805000007,1,1,Long,Delay,b2
68,lure,HF,0,0.869000018,1,1,Long,Delay,b2
69,lure,LF,0,0.765999973,1,1,Long,Delay,b2
70,lure,LF,0,0.716000021,1,1,Long,Delay,b2
71,target,LF,1,0.723999977,1,1,Long,Delay,b2
72,target,LF,1,0.723999977,1,1,Long,Delay,b3
73,lure,LF,0,0.828000009,1,1,Long,Delay,b3
74,lure,HF,0,0.764999986,1,1,Long,Delay,b3
75,target,LF,1,0.717000008,1,1,Long,Delay,b3
76,target,HF,1,0.998000026,1,1,Long,Delay,b3
77,lure,HF,0,0.73299998,1,1,Long,Delay,b3
78,target,LF,1,0.676999986,1,1,Long,Delay,b3
79,lure,LF,0,0.754999995,1,1,Long,Delay,b3
80,target,LF,1,0.978999972,1,1,Long,Delay,b3
81,lure,HF,0,0.843999982,1,1,Long,Delay,b3
82,lure,LF,0,0.778999984,1,1,Long,Delay,b3
83,lure,HF,0,2.323999882,1,1,Long,Delay,b3
84,target,HF,1,0.699999988,1,1,Long,Delay,b3
85,target,HF,1,1.052999973,1,1,Long,Delay,b3
86,target,LF,1,0.73299998,1,1,Long,Delay,b3
87,target,LF,1,0.707000017,1,1,Long,Delay,b3
88,target,LF,1,0.666999996,1,1,Long,Delay,b3
89,target,HF,1,0.602999985,1,1,Long,Delay,b3
90,lure,HF,0,0.787,1,1,Long,Delay,b3
91,target,LF,1,0.611000001,1,1,Long,Delay,b3
92,target,LF,1,0.819000006,1,1,Long,Delay,b3
93,lure,HF,0,2.187000036,1,1,Long,Delay,b3
94,target,LF,1,0.626999974,1,1,Long,Delay,b3
95,target,HF,1,0.883000016,1,1,Long,Delay,b3
0,target,HF,1,1.266000032,1,1,Long,Immed,b0
1,lure,HF,0,0.859000027,1,1,Long,Immed,b0
2,lure,LF,0,0.675000012,1,1,Long,Immed,b0
3,target,HF,1,0.602999985,1,1,Long,Immed,b0
4,lure,LF,0,0.63499999,1,1,Long,Immed,b0
5,target,HF,1,0.963999987,1,1,Long,Immed,b0
6,lure,LF,0,0.63499999,1,1,Long,Immed,b0
7,lure,HF,0,0.699999988,1,1,Long,Immed,b0
8,lure,LF,0,0.65200001,1,1,Long,Immed,b0
9,target,LF,1,0.572000027,1,1,Long,Immed,b0
10,lure,LF,0,0.588999987,1,1,Long,Immed,b0
11,lure,LF,0,0.572000027,1,1,Long,Immed,b0
12,lure,HF,0,1.019999981,1,1,Long,Immed,b0
13,target,LF,1,0.675000012,1,1,Long,Immed,b0
14,lure,HF,0,0.731000006,1,1,Long,Immed,b0
15,target,HF,1,0.739000022,1,1,Long,Immed,b0
16,target,LF,1,0.690999985,1,1,Long,Immed,b0
17,target,LF,1,0.611000001,1,1,Long,Immed,b0
18,target,HF,1,0.595000029,1,1,Long,Immed,b0
19,lure,HF,0,0.74000001,1,1,Long,Immed,b0
20,target,LF,1,0.546999991,1,1,Long,Immed,b0
21,target,LF,1,0.572000027,1,1,Long,Immed,b0
22,lure,HF,0,1.092000008,1,1,Long,Immed,b0
23,lure,LF,0,0.684000015,1,1,Long,Immed,b0
24,lure,LF,0,0.772000015,1,1,Long,Immed,b1
25,target,LF,1,0.699999988,1,1,Long,Immed,b1
26,lure,LF,0,0.675999999,1,1,Long,Immed,b1
27,lure,HF,0,0.667999983,1,1,Long,Immed,b1
28,lure,HF,0,0.773000002,1,1,Long,Immed,b1
29,target,HF,1,0.898999989,1,1,Long,Immed,b1
30,target,HF,0,0.930999994,0,1,Long,Immed,b1
31,target,LF,1,0.986999989,1,1,Long,Immed,b1
32,target,LF,1,0.699000001,1,1,Long,Immed,b1
33,lure,LF,0,0.690999985,1,1,Long,Immed,b1
34,target,HF,1,0.72299999,1,1,Long,Immed,b1
35,target,LF,1,0.884000003,1,1,Long,Immed,b1
36,lure,LF,0,0.723999977,1,1,Long,Immed,b1
37,target,HF,1,1.179999948,1,1,Long,Immed,b1
38,target,HF,1,1.036000013,1,1,Long,Immed,b1
39,target,HF,1,1.452000022,1,1,Long,Immed,b1
40,lure,HF,0,0.80400002,1,1,Long,Immed,b1
41,target,LF,1,0.611999989,1,1,Long,Immed,b1
42,target,LF,1,1.050999999,1,1,Long,Immed,b1
43,target,LF,1,0.939999998,1,1,Long,Immed,b1
44,lure,LF,0,0.827000022,1,1,Long,Immed,b1
45,target,HF,1,0.57099998,1,1,Long,Immed,b1
46,lure,LF,0,0.658999979,1,1,Long,Immed,b1
47,lure,HF,1,0.63499999,0,1,Long,Immed,b1
48,target,LF,1,0.595000029,1,1,Long,Immed,b2
49,lure,HF,0,0.915000021,1,1,Long,Immed,b2
50,target,LF,1,0.771000028,1,1,Long,Immed,b2
51,target,HF,1,0.540000021,1,1,Long,Immed,b2
52,target,HF,1,0.628000021,1,1,Long,Immed,b2
53,target,HF,1,0.714999974,1,1,Long,Immed,b2
54,lure,LF,0,0.787,1,1,Long,Immed,b2
55,target,LF,1,0.59799999,1,1,Long,Immed,b2
56,lure,LF,0,0.949999988,1,1,Long,Immed,b2
57,target,LF,1,0.606000006,1,1,Long,Immed,b2
58,target,HF,1,0.828999996,1,1,Long,Immed,b2
59,lure,HF,0,0.661000013,1,1,Long,Immed,b2
60,lure,HF,0,0.731000006,1,1,Long,Immed,b2
61,target,HF,1,0.723999977,1,1,Long,Immed,b2
62,lure,LF,0,0.690999985,1,1,Long,Immed,b2
63,target,HF,1,0.666999996,1,1,Long,Immed,b2
64,target,HF,1,0.930999994,1,1,Long,Immed,b2
65,lure,HF,0,0.787,1,1,Long,Immed,b2
66,lure,LF,0,0.628000021,1,1,Long,Immed,b2
67,lure,LF,0,0.667999983,1,1,Long,Immed,b2
68,target,LF,1,0.643999994,1,1,Long,Immed,b2
69,target,HF,0,0.939999998,0,1,Long,Immed,b2
70,lure,HF,0,1.843999982,1,1,Long,Immed,b2
71,lure,LF,0,1.386999965,1,1,Long,Immed,b2
72,target,LF,1,0.611000001,1,1,Long,Immed,b3
73,target,LF,1,0.802999973,1,1,Long,Immed,b3
74,target,LF,1,0.595000029,1,1,Long,Immed,b3
75,lure,HF,0,0.842999995,1,1,Long,Immed,b3
76,target,LF,1,0.675000012,1,1,Long,Immed,b3
77,lure,LF,0,0.754999995,1,1,Long,Immed,b3
78,lure,LF,0,0.658999979,1,1,Long,Immed,b3
79,target,HF,1,0.787,1,1,Long,Immed,b3
80,lure,HF,0,0.675999999,1,1,Long,Immed,b3
81,lure,HF,0,0.755999982,1,1,Long,Immed,b3
82,target,HF,1,0.716000021,1,1,Long,Immed,b3
83,target,LF,1,0.635999978,1,1,Long,Immed,b3
84,lure,LF,0,0.643999994,1,1,Long,Immed,b3
85,lure,HF,0,1.092000008,1,1,Long,Immed,b3
86,target,LF,1,0.603999972,1,1,Long,Immed,b3
87,target,HF,1,0.714999974,1,1,Long,Immed,b3
88,lure,HF,0,0.802999973,1,1,Long,Immed,b3
89,lure,HF,0,1.699000001,1,1,Long,Immed,b3
90,lure,LF,0,0.683000028,1,1,Long,Immed,b3
91,lure,HF,0,0.754999995,1,1,Long,Immed,b3
92,target,HF,1,0.666999996,1,1,Long,Immed,b3
93,lure,HF,0,0.708000004,1,1,Long,Immed,b3
94,lure,LF,0,0.714999974,1,1,Long,Immed,b3
95,lure,HF,1,0.81099999,0,1,Long,Immed,b3
0,target,LF,1,1.521999955,1,1,Short,Immed,b0
1,target,LF,1,0.723999977,1,1,Short,Immed,b0
2,lure,HF,0,0.748000026,1,1,Short,Immed,b0
3,target,LF,1,0.611999989,1,1,Short,Immed,b0
4,lure,HF,0,0.716000021,1,1,Short,Immed,b0
5,lure,HF,0,0.778999984,1,1,Short,Immed,b0
6,lure,LF,0,0.739000022,1,1,Short,Immed,b0
7,target,HF,1,0.643000007,1,1,Short,Immed,b0
8,target,HF,0,0.699000001,0,1,Short,Immed,b0
9,target,LF,1,0.714999974,1,1,Short,Immed,b0
10,target,HF,1,0.620000005,1,1,Short,Immed,b0
11,target,HF,1,0.619000018,1,1,Short,Immed,b0
12,lure,LF,0,0.739000022,1,1,Short,Immed,b0
13,lure,HF,0,0.63499999,1,1,Short,Immed,b0
14,lure,LF,0,0.72299999,1,1,Short,Immed,b0
15,target,HF,1,0.708000004,1,1,Short,Immed,b0
16,lure,HF,0,0.690999985,1,1,Short,Immed,b0
17,target,LF,1,0.65200001,1,1,Short,Immed,b0
18,lure,HF,0,0.74000001,1,1,Short,Immed,b0
19,lure,LF,0,0.588,1,1,Short,Immed,b0
20,lure,LF,0,0.716000021,1,1,Short,Immed,b0
21,target,HF,1,0.643999994,1,1,Short,Immed,b0
22,target,LF,1,0.683000028,1,1,Short,Immed,b0
23,lure,LF,0,0.675000012,1,1,Short,Immed,b0
0,target,HF,1,1.468000054,1,2,Long,Delay,b0
1,target,HF,1,0.675000012,1,2,Long,Delay,b0
2,lure,HF,0,0.690999985,1,2,Long,Delay,b0
3,target,HF,1,0.731000006,1,2,Long,Delay,b0
4,target,LF,1,0.651000023,1,2,Long,Delay,b0
5,target,LF,1,0.699000001,1,2,Long,Delay,b0
6,lure,HF,0,0.811999977,1,2,Long,Delay,b0
7,lure,HF,0,0.787,1,2,Long,Delay,b0
8,lure,LF,0,0.707000017,1,2,Long,Delay,b0
9,lure,LF,0,0.707000017,1,2,Long,Delay,b0
10,lure,HF,0,0.699000001,1,2,Long,Delay,b0
11,lure,HF,0,0.716000021,1,2,Long,Delay,b0
12,target,LF,1,0.675999999,1,2,Long,Delay,b0
13,target,LF,1,0.708000004,1,2,Long,Delay,b0
14,target,LF,1,0.667999983,1,2,Long,Delay,b0
15,lure,HF,0,0.676999986,1,2,Long,Delay,b0
16,lure,HF,0,0.723999977,1,2,Long,Delay,b0
17,lure,LF,0,0.629000008,1,2,Long,Delay,b0
18,lure,HF,0,0.626999974,1,2,Long,Delay,b0
19,lure,LF,0,0.699000001,1,2,Long,Delay,b0
20,target,LF,1,0.699000001,1,2,Long,Delay,b0
21,lure,LF,0,0.739000022,1,2,Long,Delay,b0
22,lure,LF,0,0.707000017,1,2,Long,Delay,b0
23,lure,HF,1,0.947000027,0,2,Long,Delay,b0
24,lure,LF,0,0.714999974,1,2,Long,Delay,b1
25,lure,LF,0,0.731000006,1,2,Long,Delay,b1
26,target,LF,1,0.827000022,1,2,Long,Delay,b1
27,lure,HF,0,0.714999974,1,2,Long,Delay,b1
28,lure,LF,0,0.716000021,1,2,Long,Delay,b1
29,target,HF,0,0.684000015,0,2,Long,Delay,b1
30,target,LF,1,0.708000004,1,2,Long,Delay,b1
31,target,LF,1,0.73299998,1,2,Long,Delay,b1
32,target,HF,1,0.708999991,1,2,Long,Delay,b1
33,target,HF,1,0.690999985,1,2,Long,Delay,b1
34,target,LF,1,0.619000018,1,2,Long,Delay,b1
35,target,HF,1,0.643999994,1,2,Long,Delay,b1
36,target,HF,1,0.866999984,1,2,Long,Delay,b1
37,lure,HF,0,0.746999979,1,2,Long,Delay,b1
38,target,HF,1,0.779999971,1,2,Long,Delay,b1
39,lure,HF,0,0.739000022,1,2,Long,Delay,b1
40,target,HF,0,0.838,0,2,Long,Delay,b1
41,target,LF,1,0.754999995,1,2,Long,Delay,b1
42,lure,HF,1,1.203999996,0,2,Long,Delay,b1
43,target,LF,1,0.725000024,1,2,Long,Delay,b1
44,target,HF,1,0.667999983,1,2,Long,Delay,b1
45,lure,HF,0,0.731999993,1,2,Long,Delay,b1
46,lure,HF,0,1.284000039,1,2,Long,Delay,b1
47,target,LF,1,0.708000004,1,2,Long,Delay,b1
48,lure,LF,0,0.819000006,1,2,Long,Delay,b2
49,lure,HF,0,0.731000006,1,2,Long,Delay,b2
50,target,LF,1,0.731000006,1,2,Long,Delay,b2
51,target,LF,1,0.860000014,1,2,Long,Delay,b2
52,target,LF,1,0.699000001,1,2,Long,Delay,b2
53,lure,HF,0,0.883000016,1,2,Long,Delay,b2
54,lure,LF,0,1.11500001,1,2,Long,Delay,b2
55,lure,LF,0,0.72299999,1,2,Long,Delay,b2
56,lure,LF,0,0.691999972,1,2,Long,Delay,b2
57,target,HF,1,0.746999979,1,2,Long,Delay,b2
58,target,HF,1,0.80400002,1,2,Long,Delay,b2
59,target,LF,1,0.740999997,1,2,Long,Delay,b2
60,lure,HF,0,0.779999971,1,2,Long,Delay,b2
61,lure,LF,0,0.763999999,1,2,Long,Delay,b2
62,lure,LF,0,1.235999942,1,2,Long,Delay,b2
63,target,LF,1,0.708000004,1,2,Long,Delay,b2
64,target,HF,1,0.978999972,1,2,Long,Delay,b2
65,target,HF,1,0.658999979,1,2,Long,Delay,b2
66,lure,LF,0,0.834999979,1,2,Long,Delay,b2
67,lure,HF,0,1.261000037,1,2,Long,Delay,b2
68,lure,HF,0,0.699000001,1,2,Long,Delay,b2
69,target,LF,1,0.834999979,1,2,Long,Delay,b2
70,target,HF,1,0.948000014,1,2,Long,Delay,b2
71,target,HF,1,0.620000005,1,2,Long,Delay,b2
72,target,LF,1,0.987999976,1,2,Long,Delay,b3
73,lure,HF,0,0.842999995,1,2,Long,Delay,b3
74,lure,HF,0,0.693000019,1,2,Long,Delay,b3
75,lure,LF,0,0.652999997,1,2,Long,Delay,b3
76,target,LF,1,0.699999988,1,2,Long,Delay,b3
77,target,HF,1,0.666999996,1,2,Long,Delay,b3
78,lure,LF,0,0.852999985,1,2,Long,Delay,b3
79,target,HF,1,0.699000001,1,2,Long,Delay,b3
80,target,LF,1,0.619000018,1,2,Long,Delay,b3
81,lure,HF,0,1.378999949,1,2,Long,Delay,b3
82,target,HF,1,0.699000001,1,2,Long,Delay,b3
83,target,LF,1,0.675999999,1,2,Long,Delay,b3
84,target,HF,1,0.875,1,2,Long,Delay,b3
85,lure,LF,0,0.758000016,1,2,Long,Delay,b3
86,target,HF,1,0.708000004,1,2,Long,Delay,b3
87,lure,HF,0,0.731999993,1,2,Long,Delay,b3
88,lure,LF,0,0.694000006,1,2,Long,Delay,b3
89,target,HF,1,0.758000016,1,2,Long,Delay,b3
90,lure,LF,0,0.813000023,1,2,Long,Delay,b3
91,target,LF,1,0.635999978,1,2,Long,Delay,b3
92,lure,LF,0,0.746999979,1,2,Long,Delay,b3
93,lure,LF,0,0.690999985,1,2,Long,Delay,b3
94,lure,LF,0,0.683000028,1,2,Long,Delay,b3
95,target,HF,1,0.675999999,1,2,Long,Delay,b3
0,lure,HF,1,1.506999969,0,2,Long,Immed,b0
1,lure,HF,0,0.693000019,1,2,Long,Immed,b0
2,lure,LF,0,0.691999972,1,2,Long,Immed,b0
3,lure,LF,0,0.644999981,1,2,Long,Immed,b0
4,target,LF,1,0.620000005,1,2,Long,Immed,b0
5,target,HF,1,0.612999976,1,2,Long,Immed,b0
6,lure,HF,1,0.708000004,0,2,Long,Immed,b0
7,target,HF,1,0.588,1,2,Long,Immed,b0
8,lure,HF,0,0.660000026,1,2,Long,Immed,b0
9,target,HF,1,0.611999989,1,2,Long,Immed,b0
10,lure,HF,1,1.299000025,0,2,Long,Immed,b0
11,target,LF,1,0.699000001,1,2,Long,Immed,b0
12,target,HF,1,0.626999974,1,2,Long,Immed,b0
13,lure,LF,0,0.690999985,1,2,Long,Immed,b0
14,target,HF,1,0.643000007,1,2,Long,Immed,b0
15,target,HF,1,0.714999974,1,2,Long,Immed,b0
16,target,LF,1,1.019999981,1,2,Long,Immed,b0
17,target,HF,1,0.89200002,1,2,Long,Immed,b0
18,target,HF,1,0.859000027,1,2,Long,Immed,b0
19,target,LF,1,0.805000007,1,2,Long,Immed,b0
20,lure,HF,0,0.867999971,1,2,Long,Immed,b0
21,lure,LF,0,0.684000015,1,2,Long,Immed,b0
22,target,LF,1,0.606000006,1,2,Long,Immed,b0
23,lure,LF,0,0.638000011,1,2,Long,Immed,b0
24,lure,HF,0,0.709999979,1,2,Long,Immed,b1
25,target,HF,1,0.612999976,1,2,Long,Immed,b1
26,target,HF,1,0.644999981,1,2,Long,Immed,b1
27,lure,HF,1,1.172999978,0,2,Long,Immed,b1
28,lure,LF,0,0.683000028,1,2,Long,Immed,b1
29,target,HF,1,0.690999985,1,2,Long,Immed,b1
30,lure,HF,0,0.708000004,1,2,Long,Immed,b1
31,target,HF,1,0.714999974,1,2,Long,Immed,b1
32,lure,HF,0,0.666999996,1,2,Long,Immed,b1
33,lure,HF,0,0.667999983,1,2,Long,Immed,b1
34,lure,HF,0,0.619000018,1,2,Long,Immed,b1
35,target,HF,1,0.667999983,1,2,Long,Immed,b1
36,lure,HF,0,0.716000021,1,2,Long,Immed,b1
37,target,LF,1,0.588,1,2,Long,Immed,b1
38,target,HF,1,0.676999986,1,2,Long,Immed,b1
39,lure,LF,0,0.684000015,1,2,Long,Immed,b1
40,lure,LF,0,0.65200001,1,2,Long,Immed,b1
41,target,LF,1,0.658999979,1,2,Long,Immed,b1
42,target,HF,1,0.922999978,1,2,Long,Immed,b1
43,target,LF,1,0.63499999,1,2,Long,Immed,b1
44,lure,LF,0,0.63499999,1,2,Long,Immed,b1
45,target,LF,1,0.707000017,1,2,Long,Immed,b1
46,lure,HF,0,0.683000028,1,2,Long,Immed,b1
47,lure,LF,0,0.716000021,1,2,Long,Immed,b1
48,lure,HF,0,0.635999978,1,2,Long,Immed,b2
49,target,LF,1,0.611999989,1,2,Long,Immed,b2
50,lure,LF,0,0.667999983,1,2,Long,Immed,b2
51,target,LF,1,0.644999981,1,2,Long,Immed,b2
52,lure,LF,0,0.89200002,1,2,Long,Immed,b2
53,target,LF,1,0.667999983,1,2,Long,Immed,b2
54,target,HF,1,0.755999982,1,2,Long,Immed,b2
55,target,LF,1,0.660000026,1,2,Long,Immed,b2
56,target,HF,1,1.394999981,1,2,Long,Immed,b2
57,lure,LF,0,0.691999972,1,2,Long,Immed,b2
58,target,LF,1,1.050999999,1,2,Long,Immed,b2
59,lure,LF,0,0.699000001,1,2,Long,Immed,b2
60,target,HF,1,0.707000017,1,2,Long,Immed,b2
61,target,LF,1,0.731999993,1,2,Long,Immed,b2
62,lure,HF,0,0.81099999,1,2,Long,Immed,b2
63,target,HF,1,0.787,1,2,Long,Immed,b2
64,target,HF,1,1.25999999,1,2,Long,Immed,b2
65,target,HF,1,1.17900002,1,2,Long,Immed,b2
66,target,LF,1,0.716000021,1,2,Long,Immed,b2
67,lure,LF,0,0.725000024,1,2,Long,Immed,b2
68,target,LF,1,0.772000015,1,2,Long,Immed,b2
69,lure,HF,0,0.787999988,1,2,Long,Immed,b2
70,lure,LF,0,0.666999996,1,2,Long,Immed,b2
71,lure,LF,0,0.651000023,1,2,Long,Immed,b2
72,lure,LF,0,0.651000023,1,2,Long,Immed,b3
73,lure,HF,0,0.842999995,1,2,Long,Immed,b3
74,lure,LF,0,0.883000016,1,2,Long,Immed,b3
75,target,LF,1,0.690999985,1,2,Long,Immed,b3
76,lure,HF,0,0.890999973,1,2,Long,Immed,b3
77,lure,LF,0,0.699000001,1,2,Long,Immed,b3
78,lure,HF,0,1.067000031,1,2,Long,Immed,b3
79,target,LF,0,0.699999988,0,2,Long,Immed,b3
80,lure,HF,0,0.699999988,1,2,Long,Immed,b3
81,lure,HF,0,0.772000015,1,2,Long,Immed,b3
82,lure,HF,0,0.723999977,1,2,Long,Immed,b3
83,target,HF,1,0.963,1,2,Long,Immed,b3
84,lure,HF,0,0.749000013,1,2,Long,Immed,b3
85,target,HF,1,0.754999995,1,2,Long,Immed,b3
86,lure,LF,0,0.72299999,1,2,Long,Immed,b3
87,target,HF,0,1.547000051,0,2,Long,Immed,b3
88,lure,LF,0,1.162999988,1,2,Long,Immed,b3
89,target,LF,1,0.851000011,1,2,Long,Immed,b3
90,target,LF,1,0.675999999,1,2,Long,Immed,b3
91,target,LF,1,0.731999993,1,2,Long,Immed,b3
92,target,LF,1,0.667999983,1,2,Long,Immed,b3
93,target,LF,1,0.660000026,1,2,Long,Immed,b3
94,lure,LF,0,0.731999993,1,2,Long,Immed,b3
95,lure,LF,0,0.74000001,1,2,Long,Immed,b3
0,lure,HF,0,1.41900003,1,2,Short,Delay,b0
1,target,HF,0,0.819000006,0,2,Short,Delay,b0
2,target,LF,1,0.683000028,1,2,Short,Delay,b0
3,lure,HF,0,0.690999985,1,2,Short,Delay,b0
4,target,LF,1,0.714999974,1,2,Short,Delay,b0
5,target,LF,1,0.611999989,1,2,Short,Delay,b0
6,target,LF,1,0.628000021,1,2,Short,Delay,b0
7,lure,LF,0,0.749000013,1,2,Short,Delay,b0
8,lure,LF,0,0.614000022,1,2,Short,Delay,b0
9,target,LF,1,0.606999993,1,2,Short,Delay,b0
10,target,HF,1,0.614000022,1,2,Short,Delay,b0
11,lure,LF,0,0.59799999,1,2,Short,Delay,b0
12,lure,HF,0,0.614000022,1,2,Short,Delay,b0
13,lure,LF,0,0.699999988,1,2,Short,Delay,b0
14,lure,LF,0,0.643999994,1,2,Short,Delay,b0
15,lure,HF,0,0.924000025,1,2,Short,Delay,b0
16,target,HF,1,0.693000019,1,2,Short,Delay,b0
17,target,HF,1,0.652999997,1,2,Short,Delay,b0
18,lure,LF,0,0.658999979,1,2,Short,Delay,b0
19,lure,HF,0,0.611000001,1,2,Short,Delay,b0
20,target,HF,1,0.898999989,1,2,Short,Delay,b0
21,target,HF,0,0.63499999,0,2,Short,Delay,b0
22,lure,HF,0,0.731000006,1,2,Short,Delay,b0
23,target,LF,1,0.643999994,1,2,Short,Delay,b0
0,lure,HF,0,1.986999989,1,2,Short,Immed,b0
1,lure,LF,0,0.754999995,1,2,Short,Immed,b0
2,target,LF,1,0.93900001,1,2,Short,Immed,b0
3,target,HF,1,0.731000006,1,2,Short,Immed,b0
4,target,HF,1,0.755999982,1,2,Short,Immed,b0
5,lure,HF,0,0.731999993,1,2,Short,Immed,b0
6,lure,LF,0,0.779999971,1,2,Short,Immed,b0
7,target,LF,1,0.707000017,1,2,Short,Immed,b0
8,lure,HF,0,0.699999988,1,2,Short,Immed,b0
9,target,HF,1,0.629999995,1,2,Short,Immed,b0
10,lure,HF,0,0.670000017,1,2,Short,Immed,b0
11,lure,HF,0,0.662,1,2,Short,Immed,b0
12,target,LF,1,0.605000019,1,2,Short,Immed,b0
13,lure,LF,0,0.700999975,1,2,Short,Immed,b0
14,target,LF,1,0.693000019,1,2,Short,Immed,b0
15,target,LF,1,0.602999985,1,2,Short,Immed,b0
16,target,HF,1,0.707000017,1,2,Short,Immed,b0
17,lure,HF,0,1.167000055,1,2,Short,Immed,b0
18,target,LF,0,0.693000019,0,2,Short,Immed,b0
19,lure,LF,0,0.685000002,1,2,Short,Immed,b0
20,target,HF,1,0.925000012,1,2,Short,Immed,b0
21,lure,LF,0,0.68599999,1,2,Short,Immed,b0
22,target,HF,1,0.66900003,1,2,Short,Immed,b0
23,lure,LF,0,0.667999983,1,2,Short,Immed,b0
0,target,LF,0,9.284000397,0,3,Long,Delay,b0
1,target,HF,1,3.224999905,1,3,Long,Delay,b0
2,lure,HF,1,1.832999945,0,3,Long,Delay,b0
3,target,HF,1,1.225000024,1,3,Long,Delay,b0
4,lure,HF,0,1.312999964,1,3,Long,Delay,b0
5,lure,HF,0,10.40100002,1,3,Long,Delay,b0
6,lure,LF,0,1.47300005,1,3,Long,Delay,b0
7,target,HF,0,2.049000025,0,3,Long,Delay,b0
8,target,LF,1,0.768999994,1,3,Long,Delay,b0
9,lure,LF,0,3.594000101,1,3,Long,Delay,b0
10,lure,HF,0,5.880000114,1,3,Long,Delay,b0
11,lure,LF,1,15.05000019,0,3,Long,Delay,b0
12,lure,HF,1,0.985000014,0,3,Long,Delay,b0
13,lure,LF,1,13.60900021,0,3,Long,Delay,b0
14,target,LF,1,3.296999931,1,3,Long,Delay,b0
15,lure,HF,1,0.897000015,0,3,Long,Delay,b0
16,target,HF,0,1.809999943,0,3,Long,Delay,b0
17,lure,LF,0,2.289000034,1,3,Long,Delay,b0
18,target,LF,1,2.049000025,1,3,Long,Delay,b0
19,lure,LF,0,1.09800005,1,3,Long,Delay,b0
20,lure,LF,0,0.873000026,1,3,Long,Delay,b0
21,lure,LF,0,1.440999985,1,3,Long,Delay,b0
22,target,LF,1,0.912999988,1,3,Long,Delay,b0
23,target,LF,1,1.144999981,1,3,Long,Delay,b0
24,lure,HF,0,1.032999992,1,3,Long,Delay,b1
25,target,HF,1,1.001000047,1,3,Long,Delay,b1
26,lure,HF,1,2.809999943,0,3,Long,Delay,b1
27,lure,HF,0,1.569000006,1,3,Long,Delay,b1
28,target,LF,0,2.576999903,0,3,Long,Delay,b1
29,target,HF,1,3.112999916,1,3,Long,Delay,b1
30,lure,LF,0,0.936999977,1,3,Long,Delay,b1
31,target,HF,0,9.697999954,0,3,Long,Delay,b1
32,target,HF,1,6.06400013,1,3,Long,Delay,b1
33,lure,LF,0,1.217000008,1,3,Long,Delay,b1
34,lure,LF,0,1.608999968,1,3,Long,Delay,b1
35,target,HF,0,1.256999969,0,3,Long,Delay,b1
36,target,LF,1,1.248999953,1,3,Long,Delay,b1
37,target,LF,0,0.976999998,0,3,Long,Delay,b1
38,lure,HF,0,1.106999993,1,3,Long,Delay,b1
39,target,HF,0,1.088999987,0,3,Long,Delay,b1
40,target,HF,1,0.86500001,1,3,Long,Delay,b1
41,target,LF,0,1.136999965,0,3,Long,Delay,b1
42,target,LF,1,2.592999935,1,3,Long,Delay,b1
43,target,LF,1,1.985000014,1,3,Long,Delay,b1
44,lure,LF,0,5.433000088,1,3,Long,Delay,b1
45,target,HF,1,1.105999947,1,3,Long,Delay,b1
46,target,LF,0,0.976999998,0,3,Long,Delay,b1
47,target,HF,0,0.944999993,0,3,Long,Delay,b1
48,target,HF,1,1.585000038,1,3,Long,Delay,b2
49,target,HF,1,0.944999993,1,3,Long,Delay,b2
50,lure,HF,1,7.304999828,0,3,Long,Delay,b2
51,lure,LF,0,0.800999999,1,3,Long,Delay,b2
52,target,LF,1,0.930000007,1,3,Long,Delay,b2
53,lure,HF,0,0.85799998,1,3,Long,Delay,b2
54,lure,LF,0,0.785000026,1,3,Long,Delay,b2
55,target,HF,1,0.745000005,1,3,Long,Delay,b2
56,target,HF,0,1.457000017,0,3,Long,Delay,b2
57,lure,LF,0,3.000999928,1,3,Long,Delay,b2
58,lure,LF,1,0.873000026,0,3,Long,Delay,b2
59,lure,HF,0,4.744999886,1,3,Long,Delay,b2
60,lure,HF,0,0.825999975,1,3,Long,Delay,b2
61,lure,HF,1,1.368999958,0,3,Long,Delay,b2
62,lure,LF,0,1.23300004,1,3,Long,Delay,b2
63,target,LF,0,0.912999988,0,3,Long,Delay,b2
64,target,LF,1,1.113999963,1,3,Long,Delay,b2
65,lure,LF,0,3.561000109,1,3,Long,Delay,b2
66,lure,HF,0,1.001000047,1,3,Long,Delay,b2
67,lure,LF,0,1.697000027,1,3,Long,Delay,b2
68,lure,HF,0,3.144999981,1,3,Long,Delay,b2
69,lure,HF,1,3.944999933,0,3,Long,Delay,b2
70,target,HF,1,1.152999997,1,3,Long,Delay,b2
71,lure,HF,1,1.305999994,0,3,Long,Delay,b2
72,lure,HF,0,0.86500001,1,3,Long,Delay,b3
73,lure,HF,1,9.048000336,0,3,Long,Delay,b3
74,target,LF,0,0.921000004,0,3,Long,Delay,b3
75,target,HF,1,0.86500001,1,3,Long,Delay,b3
76,lure,HF,1,1.960999966,0,3,Long,Delay,b3
77,lure,HF,0,1.393000007,1,3,Long,Delay,b3
78,target,LF,1,1.082000017,1,3,Long,Delay,b3
79,target,LF,1,0.792999983,1,3,Long,Delay,b3
80,target,LF,1,0.68900001,1,3,Long,Delay,b3
81,target,LF,1,2.953999996,1,3,Long,Delay,b3
82,target,HF,0,1.713000059,0,3,Long,Delay,b3
83,target,HF,1,0.92900002,1,3,Long,Delay,b3
84,target,HF,1,9.850000381,1,3,Long,Delay,b3
85,target,HF,1,1.08099997,1,3,Long,Delay,b3
86,target,HF,1,1.906000018,1,3,Long,Delay,b3
87,target,LF,0,2.088999987,0,3,Long,Delay,b3
88,target,LF,0,0.816999972,0,3,Long,Delay,b3
89,lure,LF,0,4.977000237,1,3,Long,Delay,b3
90,lure,LF,0,0.704999983,1,3,Long,Delay,b3
91,lure,LF,0,0.953000009,1,3,Long,Delay,b3
92,target,LF,1,0.953000009,1,3,Long,Delay,b3
93,lure,LF,0,1.38499999,1,3,Long,Delay,b3
94,lure,LF,0,0.681999981,1,3,Long,Delay,b3
95,lure,HF,0,0.721000016,1,3,Long,Delay,b3
0,lure,HF,0,1.445000052,1,3,Long,Immed,b0
1,lure,LF,0,0.816999972,1,3,Long,Immed,b0
2,target,HF,1,4.193999767,1,3,Long,Immed,b0
3,target,HF,1,0.77700001,1,3,Long,Immed,b0
4,target,LF,1,0.86500001,1,3,Long,Immed,b0
5,lure,LF,0,0.704999983,1,3,Long,Immed,b0
6,lure,HF,1,0.992999971,0,3,Long,Immed,b0
7,lure,HF,0,0.968999982,1,3,Long,Immed,b0
8,target,LF,1,0.809000015,1,3,Long,Immed,b0
9,lure,LF,0,0.736999989,1,3,Long,Immed,b0
10,lure,LF,1,0.704999983,0,3,Long,Immed,b0
11,lure,HF,1,2.785000086,0,3,Long,Immed,b0
12,target,LF,1,0.880999982,1,3,Long,Immed,b0
13,lure,LF,0,0.818000019,1,3,Long,Immed,b0
14,target,HF,0,1.01699996,0,3,Long,Immed,b0
15,target,HF,0,1.49000001,0,3,Long,Immed,b0
16,target,LF,0,1.032999992,0,3,Long,Immed,b0
17,target,LF,0,0.77700001,0,3,Long,Immed,b0
18,lure,HF,0,0.856999993,1,3,Long,Immed,b0
19,target,LF,0,0.897000015,0,3,Long,Immed,b0
20,lure,HF,0,3.70600009,1,3,Long,Immed,b0
21,target,LF,1,0.736999989,1,3,Long,Immed,b0
22,target,LF,1,1.304999948,1,3,Long,Immed,b0
23,target,LF,0,0.938000023,0,3,Long,Immed,b0
24,lure,HF,0,0.986000001,1,3,Long,Immed,b1
25,target,LF,1,0.985000014,1,3,Long,Immed,b1
26,target,HF,1,1.506000042,1,3,Long,Immed,b1
27,target,HF,0,0.906000018,0,3,Long,Immed,b1
28,lure,LF,0,1.008999944,1,3,Long,Immed,b1
29,lure,HF,0,2.184999943,1,3,Long,Immed,b1
30,target,HF,1,1.440999985,1,3,Long,Immed,b1
31,lure,HF,1,0.856999993,0,3,Long,Immed,b1
32,lure,HF,0,1.105000019,1,3,Long,Immed,b1
33,lure,LF,0,0.809000015,1,3,Long,Immed,b1
34,lure,LF,0,0.786000013,1,3,Long,Immed,b1
35,lure,LF,0,1.856999993,1,3,Long,Immed,b1
36,target,LF,1,0.792999983,1,3,Long,Immed,b1
37,target,HF,1,1.097000003,1,3,Long,Immed,b1
38,target,LF,0,6.122000217,0,3,Long,Immed,b1
39,target,HF,0,1.225000024,0,3,Long,Immed,b1
40,lure,HF,0,1.593000054,1,3,Long,Immed,b1
41,target,HF,1,1.722000003,1,3,Long,Immed,b1
42,lure,HF,1,1.082000017,0,3,Long,Immed,b1
43,target,LF,1,0.713,1,3,Long,Immed,b1
44,target,LF,1,0.785000026,1,3,Long,Immed,b1
45,lure,LF,0,0.785000026,1,3,Long,Immed,b1
46,lure,HF,0,2.128999949,1,3,Long,Immed,b1
47,target,LF,1,0.737999976,1,3,Long,Immed,b1
48,lure,HF,0,7.744999886,1,3,Long,Immed,b2
49,lure,HF,0,0.92900002,1,3,Long,Immed,b2
50,target,LF,0,0.873000026,0,3,Long,Immed,b2
51,lure,LF,0,1.304999948,1,3,Long,Immed,b2
52,lure,HF,0,0.985000014,1,3,Long,Immed,b2
53,target,HF,1,0.897000015,1,3,Long,Immed,b2
54,target,HF,1,1.968999982,1,3,Long,Immed,b2
55,lure,LF,0,0.907000005,1,3,Long,Immed,b2
56,target,LF,1,0.768999994,1,3,Long,Immed,b2
57,lure,HF,0,1.241999984,1,3,Long,Immed,b2
58,target,LF,1,0.792999983,1,3,Long,Immed,b2
59,lure,HF,0,1.049000025,1,3,Long,Immed,b2
60,lure,LF,0,1.503999949,1,3,Long,Immed,b2
61,target,LF,0,0.904999971,0,3,Long,Immed,b2
62,lure,HF,1,1.16900003,0,3,Long,Immed,b2
63,target,HF,0,0.728999972,0,3,Long,Immed,b2
64,lure,HF,0,0.904999971,1,3,Long,Immed,b2
65,target,HF,1,1.202000022,1,3,Long,Immed,b2
66,lure,HF,1,0.953000009,0,3,Long,Immed,b2
67,target,HF,0,0.86500001,0,3,Long,Immed,b2
68,target,HF,1,1.394000053,1,3,Long,Immed,b2
69,lure,HF,0,0.833000004,1,3,Long,Immed,b2
70,target,LF,1,1.345000029,1,3,Long,Immed,b2
71,lure,LF,0,1.440999985,1,3,Long,Immed,b2
72,target,HF,0,0.85799998,0,3,Long,Immed,b3
73,target,LF,0,0.976999998,0,3,Long,Immed,b3
74,lure,HF,0,1.024999976,1,3,Long,Immed,b3
75,target,LF,1,0.816999972,1,3,Long,Immed,b3
76,target,HF,0,1.345999956,0,3,Long,Immed,b3
77,lure,LF,0,0.888999999,1,3,Long,Immed,b3
78,lure,HF,0,1.312999964,1,3,Long,Immed,b3
79,lure,LF,0,1.057000041,1,3,Long,Immed,b3
80,target,HF,0,0.968999982,0,3,Long,Immed,b3
81,target,HF,0,0.930000007,0,3,Long,Immed,b3
82,lure,LF,0,0.762000024,1,3,Long,Immed,b3
83,lure,LF,1,1.248999953,0,3,Long,Immed,b3
84,lure,LF,0,0.713999987,1,3,Long,Immed,b3
85,target,HF,1,0.992999971,1,3,Long,Immed,b3
86,target,LF,0,2.273000002,0,3,Long,Immed,b3
87,lure,LF,0,0.697000027,1,3,Long,Immed,b3
88,lure,LF,0,0.961000025,1,3,Long,Immed,b3
89,lure,LF,0,0.936999977,1,3,Long,Immed,b3
90,lure,LF,0,0.657000005,1,3,Long,Immed,b3
91,target,HF,1,1.393000007,1,3,Long,Immed,b3
92,lure,LF,0,1.08099997,1,3,Long,Immed,b3
93,target,LF,0,1.360999942,0,3,Long,Immed,b3
94,target,HF,0,2.042999983,0,3,Long,Immed,b3
95,target,HF,0,1.088999987,0,3,Long,Immed,b3
0,lure,LF,0,2.507999897,1,3,Short,Immed,b0
1,lure,LF,1,1.921000004,0,3,Short,Immed,b0
2,target,HF,1,1.480999947,1,3,Short,Immed,b0
3,target,HF,1,2.457999945,1,3,Short,Immed,b0
4,lure,HF,0,1.241000056,1,3,Short,Immed,b0
5,lure,HF,0,0.856999993,1,3,Short,Immed,b0
6,target,HF,1,0.77700001,1,3,Short,Immed,b0
7,target,LF,1,1.353000045,1,3,Short,Immed,b0
8,target,LF,1,0.873000026,1,3,Short,Immed,b0
9,lure,HF,0,4.169000149,1,3,Short,Immed,b0
10,lure,HF,1,2.01699996,0,3,Short,Immed,b0
11,target,HF,1,0.722000003,1,3,Short,Immed,b0
12,target,LF,1,0.690999985,1,3,Short,Immed,b0
13,lure,LF,0,0.768999994,1,3,Short,Immed,b0
14,target,LF,1,0.680999994,1,3,Short,Immed,b0
15,lure,LF,0,1.041000009,1,3,Short,Immed,b0
16,lure,LF,0,0.976999998,1,3,Short,Immed,b0
17,target,LF,1,1.289000034,1,3,Short,Immed,b0
18,target,LF,0,0.800999999,0,3,Short,Immed,b0
19,lure,LF,0,0.856999993,1,3,Short,Immed,b0
20,lure,HF,0,1.241000056,1,3,Short,Immed,b0
21,target,HF,1,0.816999972,1,3,Short,Immed,b0
22,target,HF,1,0.809000015,1,3,Short,Immed,b0
23,lure,HF,0,1.184999943,1,3,Short,Immed,b0
0,target,LF,1,1.781000018,1,3,Short,Delay,b0
1,target,HF,1,0.816999972,1,3,Short,Delay,b0
2,lure,HF,0,0.79400003,1,3,Short,Delay,b0
3,target,LF,1,2.401000023,1,3,Short,Delay,b0
4,lure,HF,1,1.664999962,0,3,Short,Delay,b0
5,lure,LF,0,0.897000015,1,3,Short,Delay,b0
6,lure,LF,0,1.128999949,1,3,Short,Delay,b0
7,lure,LF,0,1.345000029,1,3,Short,Delay,b0
8,lure,LF,0,0.930000007,1,3,Short,Delay,b0
9,lure,HF,0,1.024999976,1,3,Short,Delay,b0
10,target,HF,1,0.880999982,1,3,Short,Delay,b0
11,target,LF,1,1.304999948,1,3,Short,Delay,b0
12,target,HF,1,0.809000015,1,3,Short,Delay,b0
13,target,LF,0,0.976999998,0,3,Short,Delay,b0
14,target,LF,1,0.962000012,1,3,Short,Delay,b0
15,lure,HF,1,0.938000023,0,3,Short,Delay,b0
16,lure,HF,1,2.529000044,0,3,Short,Delay,b0
17,target,HF,1,0.904999971,1,3,Short,Delay,b0
18,target,HF,1,0.92900002,1,3,Short,Delay,b0
19,lure,LF,1,1.593000054,0,3,Short,Delay,b0
20,target,LF,1,1.378000021,1,3,Short,Delay,b0
21,lure,LF,1,1.097000003,0,3,Short,Delay,b0
22,lure,HF,0,1.993000031,1,3,Short,Delay,b0
23,target,HF,1,1.889000058,1,3,Short,Delay,b0
0,lure,LF,0,1.633999944,1,4,Short,Delay,b0
1,lure,LF,0,0.763000011,1,4,Short,Delay,b0
2,target,LF,1,0.739000022,1,4,Short,Delay,b0
3,target,HF,1,0.611999989,1,4,Short,Delay,b0
4,target,HF,1,0.531000018,1,4,Short,Delay,b0
5,lure,LF,0,0.74000001,1,4,Short,Delay,b0
6,target,HF,1,0.95599997,1,4,Short,Delay,b0
7,target,LF,1,0.587000012,1,4,Short,Delay,b0
8,target,LF,1,0.716000021,1,4,Short,Delay,b0
9,lure,HF,0,1.347000003,1,4,Short,Delay,b0
10,target,LF,1,0.620000005,1,4,Short,Delay,b0
11,lure,HF,1,0.555999994,0,4,Short,Delay,b0
12,lure,HF,0,0.596000016,1,4,Short,Delay,b0
13,lure,HF,0,0.579999983,1,4,Short,Delay,b0
14,target,HF,1,0.660000026,1,4,Short,Delay,b0
15,target,LF,1,0.667999983,1,4,Short,Delay,b0
16,lure,HF,0,1.603000045,1,4,Short,Delay,b0
17,lure,LF,0,1.707000017,1,4,Short,Delay,b0
18,lure,LF,0,1.72300005,1,4,Short,Delay,b0
19,lure,HF,1,0.851000011,0,4,Short,Delay,b0
20,target,HF,1,0.660000026,1,4,Short,Delay,b0
21,lure,LF,0,0.901000023,1,4,Short,Delay,b0
22,target,HF,1,0.866999984,1,4,Short,Delay,b0
23,target,LF,1,0.579999983,1,4,Short,Delay,b0
0,target,LF,1,0.754999995,1,4,Short,Immed,b0
1,lure,HF,0,1.220000029,1,4,Short,Immed,b0
2,lure,LF,0,1.274999976,1,4,Short,Immed,b0
3,target,HF,1,0.611999989,1,4,Short,Immed,b0
4,lure,HF,1,1.139999986,0,4,Short,Immed,b0
5,lure,LF,0,1.083999991,1,4,Short,Immed,b0
6,lure,HF,0,1.243000031,1,4,Short,Immed,b0
7,target,HF,1,1.011000037,1,4,Short,Immed,b0
8,lure,LF,0,0.771000028,1,4,Short,Immed,b0
9,target,LF,1,1.626999974,1,4,Short,Immed,b0
10,target,LF,1,0.787,1,4,Short,Immed,b0
11,lure,LF,1,1.075000048,0,4,Short,Immed,b0
12,target,LF,1,0.790000021,1,4,Short,Immed,b0
13,lure,HF,0,0.750999987,1,4,Short,Immed,b0
14,target,LF,1,0.582000017,1,4,Short,Immed,b0
15,lure,HF,1,0.782000005,0,4,Short,Immed,b0
16,target,HF,1,0.606000006,1,4,Short,Immed,b0
17,lure,LF,0,0.948000014,1,4,Short,Immed,b0
18,lure,HF,1,0.685000002,0,4,Short,Immed,b0
19,target,HF,1,0.88499999,1,4,Short,Immed,b0
20,target,LF,0,0.676999986,0,4,Short,Immed,b0
21,lure,LF,0,0.693000019,1,4,Short,Immed,b0
22,target,HF,0,0.676999986,0,4,Short,Immed,b0
23,target,HF,1,0.717000008,1,4,Short,Immed,b0
0,target,LF,1,0.681999981,1,4,Long,Immed,b0
1,lure,HF,0,0.898999989,1,4,Long,Immed,b0
2,lure,LF,0,0.787,1,4,Long,Immed,b0
3,target,LF,1,0.611000001,1,4,Long,Immed,b0
4,target,HF,0,1.707999945,0,4,Long,Immed,b0
5,target,HF,0,0.915000021,0,4,Long,Immed,b0
6,target,LF,0,1.261999965,0,4,Long,Immed,b0
7,target,LF,1,0.822000027,1,4,Long,Immed,b0
8,target,HF,0,0.790000021,0,4,Long,Immed,b0
9,target,HF,1,0.574000001,1,4,Long,Immed,b0
10,lure,LF,1,0.809000015,0,4,Long,Immed,b0
11,lure,LF,0,0.628000021,1,4,Long,Immed,b0
12,target,HF,1,0.707000017,1,4,Long,Immed,b0
13,target,LF,1,0.596000016,1,4,Long,Immed,b0
14,lure,HF,0,0.890999973,1,4,Long,Immed,b0
15,target,HF,1,0.834999979,1,4,Long,Immed,b0
16,target,LF,1,1.11500001,1,4,Long,Immed,b0
17,target,LF,1,1.11500001,1,4,Long,Immed,b0
18,lure,LF,0,0.651000023,1,4,Long,Immed,b0
19,target,LF,0,0.675000012,0,4,Long,Immed,b0
20,lure,LF,0,0.676999986,1,4,Long,Immed,b0
21,target,LF,1,0.731999993,1,4,Long,Immed,b0
22,lure,LF,0,0.588,1,4,Long,Immed,b0
23,lure,HF,0,0.757000029,1,4,Long,Immed,b0
24,lure,HF,0,0.884000003,1,4,Long,Immed,b1
25,lure,LF,0,0.603999972,1,4,Long,Immed,b1
26,target,LF,1,0.860000014,1,4,Long,Immed,b1
27,lure,LF,0,0.778999984,1,4,Long,Immed,b1
28,target,LF,1,0.819000006,1,4,Long,Immed,b1
29,target,HF,1,1.427000046,1,4,Long,Immed,b1
30,lure,HF,0,1.172000051,1,4,Long,Immed,b1
31,lure,LF,0,0.675999999,1,4,Long,Immed,b1
32,target,LF,1,0.63499999,1,4,Long,Immed,b1
33,lure,LF,0,0.699000001,1,4,Long,Immed,b1
34,lure,HF,0,0.802999973,1,4,Long,Immed,b1
35,lure,LF,1,1.059999943,0,4,Long,Immed,b1
36,target,LF,1,1.18900001,1,4,Long,Immed,b1
37,lure,HF,1,1.059999943,0,4,Long,Immed,b1
38,target,LF,1,0.772000015,1,4,Long,Immed,b1
39,lure,LF,0,0.80400002,1,4,Long,Immed,b1
40,target,HF,1,0.939999998,1,4,Long,Immed,b1
41,target,HF,1,0.72299999,1,4,Long,Immed,b1
42,lure,HF,0,0.699000001,1,4,Long,Immed,b1
43,lure,LF,0,0.683000028,1,4,Long,Immed,b1
44,lure,HF,0,0.523000002,1,4,Long,Immed,b1
45,target,HF,0,0.930999994,0,4,Long,Immed,b1
46,target,LF,1,0.658999979,1,4,Long,Immed,b1
47,target,HF,1,0.772000015,1,4,Long,Immed,b1
48,lure,HF,1,0.842999995,0,4,Long,Immed,b2
49,lure,LF,0,0.691999972,1,4,Long,Immed,b2
50,lure,HF,0,0.691999972,1,4,Long,Immed,b2
51,target,LF,1,0.772000015,1,4,Long,Immed,b2
52,target,HF,1,0.699999988,1,4,Long,Immed,b2
53,target,LF,1,0.629000008,1,4,Long,Immed,b2
54,target,HF,1,0.723999977,1,4,Long,Immed,b2
55,lure,HF,1,0.731999993,0,4,Long,Immed,b2
56,target,HF,1,0.707000017,1,4,Long,Immed,b2
57,lure,LF,0,0.739000022,1,4,Long,Immed,b2
58,target,HF,1,0.683000028,1,4,Long,Immed,b2
59,target,LF,1,0.84799999,1,4,Long,Immed,b2
60,lure,LF,0,0.707000017,1,4,Long,Immed,b2
61,target,LF,1,0.683000028,1,4,Long,Immed,b2
62,lure,HF,0,0.549000025,1,4,Long,Immed,b2
63,target,HF,1,0.870000005,1,4,Long,Immed,b2
64,target,LF,1,0.629999995,1,4,Long,Immed,b2
65,lure,LF,0,0.565999985,1,4,Long,Immed,b2
66,target,LF,0,0.717999995,0,4,Long,Immed,b2
67,target,LF,0,0.973999977,0,4,Long,Immed,b2
68,target,HF,1,1.5,1,4,Long,Immed,b2
69,lure,HF,0,0.603999972,1,4,Long,Immed,b2
70,target,HF,1,0.82099998,1,4,Long,Immed,b2
71,target,HF,1,0.717999995,1,4,Long,Immed,b2
72,target,HF,1,0.739000022,1,4,Long,Immed,b3
73,lure,HF,0,0.611000001,1,4,Long,Immed,b3
74,target,HF,0,1.235000014,0,4,Long,Immed,b3
75,lure,HF,0,0.72299999,1,4,Long,Immed,b3
76,lure,HF,0,1.11500001,1,4,Long,Immed,b3
77,lure,HF,0,0.796000004,1,4,Long,Immed,b3
78,target,HF,1,0.787,1,4,Long,Immed,b3
79,target,HF,0,0.57099998,0,4,Long,Immed,b3
80,lure,LF,0,0.620000005,1,4,Long,Immed,b3
81,lure,LF,0,0.588,1,4,Long,Immed,b3
82,lure,HF,1,0.796000004,0,4,Long,Immed,b3
83,lure,LF,0,0.483999997,1,4,Long,Immed,b3
84,lure,HF,1,0.828000009,0,4,Long,Immed,b3
85,target,LF,1,0.684000015,1,4,Long,Immed,b3
86,target,LF,1,0.771000028,1,4,Long,Immed,b3
87,lure,HF,1,0.828000009,0,4,Long,Immed,b3
88,lure,HF,0,0.714999974,1,4,Long,Immed,b3
89,lure,LF,0,0.859000027,1,4,Long,Immed,b3
90,lure,LF,0,0.690999985,1,4,Long,Immed,b3
91,lure,LF,0,0.771000028,1,4,Long,Immed,b3
92,target,HF,1,1.019000053,1,4,Long,Immed,b3
93,lure,HF,0,0.643000007,1,4,Long,Immed,b3
94,lure,HF,0,0.602999985,1,4,Long,Immed,b3
95,lure,LF,0,0.843999982,1,4,Long,Immed,b3
0,lure,HF,0,1.587000012,1,4,Long,Delay,b0
1,lure,LF,1,0.828000009,0,4,Long,Delay,b0
2,lure,HF,0,0.717999995,1,4,Long,Delay,b0
3,lure,LF,0,0.717999995,1,4,Long,Delay,b0
4,target,LF,1,0.81400001,1,4,Long,Delay,b0
5,target,HF,0,0.677999973,0,4,Long,Delay,b0
6,lure,HF,0,1.197000027,1,4,Long,Delay,b0
7,lure,HF,1,0.81099999,0,4,Long,Delay,b0
8,target,HF,1,0.651000023,1,4,Long,Delay,b0
9,lure,HF,0,0.587000012,1,4,Long,Delay,b0
10,target,LF,1,0.795000017,1,4,Long,Delay,b0
11,lure,LF,0,0.555000007,1,4,Long,Delay,b0
12,target,LF,1,0.72299999,1,4,Long,Delay,b0
13,target,LF,1,1.098999977,1,4,Long,Delay,b0
14,lure,HF,0,0.81099999,1,4,Long,Delay,b0
15,target,LF,0,0.899999976,0,4,Long,Delay,b0
16,target,LF,1,1.083999991,1,4,Long,Delay,b0
17,lure,HF,0,0.658999979,1,4,Long,Delay,b0
18,target,HF,0,0.691999972,0,4,Long,Delay,b0
19,lure,HF,0,0.56400001,1,4,Long,Delay,b0
20,lure,LF,0,0.707000017,1,4,Long,Delay,b0
21,lure,LF,1,0.699000001,0,4,Long,Delay,b0
22,target,LF,0,0.531000018,0,4,Long,Delay,b0
23,lure,LF,0,0.626999974,1,4,Long,Delay,b0
24,target,LF,1,0.595000029,1,4,Long,Delay,b1
25,target,HF,1,0.578999996,1,4,Long,Delay,b1
26,lure,HF,1,0.578999996,0,4,Long,Delay,b1
27,target,HF,1,0.57099998,1,4,Long,Delay,b1
28,target,HF,1,0.651000023,1,4,Long,Delay,b1
29,target,LF,1,0.563000023,1,4,Long,Delay,b1
30,lure,LF,1,1.003000021,0,4,Long,Delay,b1
31,lure,LF,0,0.739000022,1,4,Long,Delay,b1
32,lure,HF,1,0.772000015,0,4,Long,Delay,b1
33,lure,LF,0,0.611999989,1,4,Long,Delay,b1
34,target,LF,1,0.684000015,1,4,Long,Delay,b1
35,target,LF,0,0.748000026,0,4,Long,Delay,b1
36,target,HF,1,0.755999982,1,4,Long,Delay,b1
37,target,HF,1,0.707000017,1,4,Long,Delay,b1
38,lure,LF,0,0.619000018,1,4,Long,Delay,b1
39,lure,LF,0,0.740999997,1,4,Long,Delay,b1
40,lure,HF,0,1.218999982,1,4,Long,Delay,b1
41,target,HF,1,0.643000007,1,4,Long,Delay,b1
42,lure,HF,1,0.619000018,0,4,Long,Delay,b1
43,lure,HF,0,0.922999978,1,4,Long,Delay,b1
44,lure,HF,0,0.72299999,1,4,Long,Delay,b1
45,target,LF,1,0.690999985,1,4,Long,Delay,b1
46,lure,HF,0,0.813000023,1,4,Long,Delay,b1
47,target,LF,0,0.731999993,0,4,Long,Delay,b1
48,lure,LF,0,0.56400001,1,4,Long,Delay,b2
49,target,HF,1,0.74000001,1,4,Long,Delay,b2
50,target,HF,1,0.74000001,1,4,Long,Delay,b2
51,target,HF,1,0.588,1,4,Long,Delay,b2
52,target,LF,1,0.699999988,1,4,Long,Delay,b2
53,target,HF,1,0.651000023,1,4,Long,Delay,b2
54,target,HF,1,1.274999976,1,4,Long,Delay,b2
55,lure,LF,0,0.978999972,1,4,Long,Delay,b2
56,lure,HF,0,0.731000006,1,4,Long,Delay,b2
57,target,LF,1,0.619000018,1,4,Long,Delay,b2
58,target,HF,1,0.57099998,1,4,Long,Delay,b2
59,lure,HF,0,0.842999995,1,4,Long,Delay,b2
60,target,HF,0,0.699999988,0,4,Long,Delay,b2
61,lure,LF,0,0.746999979,1,4,Long,Delay,b2
62,target,HF,1,0.644999981,1,4,Long,Delay,b2
63,lure,LF,1,0.65200001,0,4,Long,Delay,b2
64,target,LF,1,0.606999993,1,4,Long,Delay,b2
65,target,LF,1,0.819999993,1,4,Long,Delay,b2
66,target,LF,1,0.555999994,1,4,Long,Delay,b2
67,target,LF,1,0.699999988,1,4,Long,Delay,b2
68,lure,HF,0,0.875,1,4,Long,Delay,b2
69,target,LF,1,0.651000023,1,4,Long,Delay,b2
70,lure,HF,0,1.411000013,1,4,Long,Delay,b2
71,target,HF,1,1.021000028,1,4,Long,Delay,b2
72,target,HF,1,0.916999996,1,4,Long,Delay,b3
73,lure,LF,0,0.781000018,1,4,Long,Delay,b3
74,lure,LF,0,0.676999986,1,4,Long,Delay,b3
75,target,LF,0,0.620000005,0,4,Long,Delay,b3
76,target,LF,0,0.795000017,0,4,Long,Delay,b3
77,target,HF,1,0.93900001,1,4,Long,Delay,b3
78,target,LF,1,0.726000011,1,4,Long,Delay,b3
79,target,HF,1,1.003999949,1,4,Long,Delay,b3
80,lure,LF,0,0.996999979,1,4,Long,Delay,b3
81,target,LF,1,0.611999989,1,4,Long,Delay,b3
82,lure,LF,1,0.908999979,0,4,Long,Delay,b3
83,lure,LF,0,0.819000006,1,4,Long,Delay,b3
84,lure,HF,1,0.699000001,0,4,Long,Delay,b3
85,lure,LF,0,0.683000028,1,4,Long,Delay,b3
86,target,HF,0,0.555000007,0,4,Long,Delay,b3
87,lure,LF,0,0.603999972,1,4,Long,Delay,b3
88,lure,LF,0,0.658999979,1,4,Long,Delay,b3
89,target,HF,1,0.699999988,1,4,Long,Delay,b3
90,lure,LF,0,0.643000007,1,4,Long,Delay,b3
91,lure,HF,0,0.723999977,1,4,Long,Delay,b3
92,lure,HF,0,0.532999992,1,4,Long,Delay,b3
93,lure,HF,0,0.68599999,1,4,Long,Delay,b3
94,target,HF,1,0.735000014,1,4,Long,Delay,b3
95,lure,HF,0,0.910000026,1,4,Long,Delay,b3
0,lure,LF,0,7.394999981,1,5,Long,Immed,b0
1,target,HF,1,0.875,1,5,Long,Immed,b0
2,target,LF,1,0.662,1,5,Long,Immed,b0
3,target,HF,0,1.694000006,0,5,Long,Immed,b0
4,target,HF,1,0.822000027,1,5,Long,Immed,b0
5,target,LF,0,1.05400002,0,5,Long,Immed,b0
6,lure,LF,0,2.107000113,1,5,Long,Immed,b0
7,target,LF,0,1.652999997,0,5,Long,Immed,b0
8,lure,HF,0,0.723999977,1,5,Long,Immed,b0
9,target,LF,1,3.013999939,1,5,Long,Immed,b0
10,target,LF,1,0.746999979,1,5,Long,Immed,b0
11,target,LF,1,0.555999994,1,5,Long,Immed,b0
12,lure,HF,0,0.898999989,1,5,Long,Immed,b0
13,lure,LF,0,0.755999982,1,5,Long,Immed,b0
14,target,LF,1,0.675999999,1,5,Long,Immed,b0
15,lure,HF,0,1.835999966,1,5,Long,Immed,b0
16,lure,HF,0,0.603999972,1,5,Long,Immed,b0
17,lure,HF,0,0.842999995,1,5,Long,Immed,b0
18,lure,LF,1,0.754999995,0,5,Long,Immed,b0
19,lure,LF,0,1.386999965,1,5,Long,Immed,b0
20,target,HF,1,0.842999995,1,5,Long,Immed,b0
21,target,LF,1,0.907999992,1,5,Long,Immed,b0
22,lure,HF,0,1.17900002,1,5,Long,Immed,b0
23,target,HF,1,0.779999971,1,5,Long,Immed,b0
24,lure,LF,0,0.980000019,1,5,Long,Immed,b1
25,lure,HF,0,2.595999956,1,5,Long,Immed,b1
26,lure,LF,0,1.036000013,1,5,Long,Immed,b1
27,target,LF,1,0.907999992,1,5,Long,Immed,b1
28,target,HF,1,1.019000053,1,5,Long,Immed,b1
29,target,LF,1,0.65200001,1,5,Long,Immed,b1
30,target,HF,1,0.652999997,1,5,Long,Immed,b1
31,target,LF,1,2.917000055,1,5,Long,Immed,b1
32,target,LF,1,0.605000019,1,5,Long,Immed,b1
33,target,LF,1,0.731000006,1,5,Long,Immed,b1
34,target,LF,1,1.763000011,1,5,Long,Immed,b1
35,lure,HF,0,0.845000029,1,5,Long,Immed,b1
36,lure,LF,0,1.003000021,1,5,Long,Immed,b1
37,target,LF,1,0.772000015,1,5,Long,Immed,b1
38,target,HF,1,2.059999943,1,5,Long,Immed,b1
39,target,HF,1,1.123000026,1,5,Long,Immed,b1
40,lure,LF,0,0.754999995,1,5,Long,Immed,b1
41,lure,LF,0,0.675000012,1,5,Long,Immed,b1
42,target,LF,1,0.851999998,1,5,Long,Immed,b1
43,lure,HF,0,1.251999974,1,5,Long,Immed,b1
44,target,LF,1,0.739000022,1,5,Long,Immed,b1
45,target,HF,1,1.404000044,1,5,Long,Immed,b1
46,target,HF,1,0.907999992,1,5,Long,Immed,b1
47,target,HF,1,0.971000016,1,5,Long,Immed,b1
48,lure,LF,0,0.675999999,1,5,Long,Immed,b2
49,target,HF,1,1.827999949,1,5,Long,Immed,b2
50,target,LF,1,0.860000014,1,5,Long,Immed,b2
51,target,HF,1,0.787,1,5,Long,Immed,b2
52,lure,LF,0,0.859000027,1,5,Long,Immed,b2
53,lure,LF,1,2.509000063,0,5,Long,Immed,b2
54,lure,HF,0,0.82099998,1,5,Long,Immed,b2
55,lure,HF,0,0.964999974,1,5,Long,Immed,b2
56,target,LF,1,1.251000047,1,5,Long,Immed,b2
57,target,LF,1,0.731000006,1,5,Long,Immed,b2
58,lure,HF,0,1.243999958,1,5,Long,Immed,b2
59,lure,LF,0,0.772000015,1,5,Long,Immed,b2
60,lure,LF,0,0.963999987,1,5,Long,Immed,b2
61,lure,HF,0,1.572999954,1,5,Long,Immed,b2
62,lure,HF,0,1.779000044,1,5,Long,Immed,b2
63,lure,LF,1,1.643000007,0,5,Long,Immed,b2
64,target,HF,1,1.149999976,1,5,Long,Immed,b2
65,target,HF,1,0.661000013,1,5,Long,Immed,b2
66,lure,HF,0,0.837000012,1,5,Long,Immed,b2
67,target,HF,1,0.644999981,1,5,Long,Immed,b2
68,lure,HF,0,7.979000092,1,5,Long,Immed,b2
69,target,HF,1,1.835000038,1,5,Long,Immed,b2
70,target,HF,1,0.787,1,5,Long,Immed,b2
71,target,HF,1,1.139000058,1,5,Long,Immed,b2
72,lure,HF,0,0.827000022,1,5,Long,Immed,b3
73,target,LF,1,3.019000053,1,5,Long,Immed,b3
74,lure,LF,0,0.731999993,1,5,Long,Immed,b3
75,lure,HF,0,0.772000015,1,5,Long,Immed,b3
76,lure,HF,0,1.253000021,1,5,Long,Immed,b3
77,lure,LF,0,1.324000001,1,5,Long,Immed,b3
78,lure,HF,0,2.051000118,1,5,Long,Immed,b3
79,lure,LF,0,2.476999998,1,5,Long,Immed,b3
80,lure,HF,0,0.714999974,1,5,Long,Immed,b3
81,target,HF,0,2.642999887,0,5,Long,Immed,b3
82,lure,LF,0,0.707000017,1,5,Long,Immed,b3
83,target,HF,0,1.555999994,0,5,Long,Immed,b3
84,target,HF,0,0.81099999,0,5,Long,Immed,b3
85,lure,LF,0,3.63499999,1,5,Long,Immed,b3
86,lure,LF,0,1.963000059,1,5,Long,Immed,b3
87,target,LF,1,0.778999984,1,5,Long,Immed,b3
88,lure,HF,0,0.927999973,1,5,Long,Immed,b3
89,lure,HF,0,0.82099998,1,5,Long,Immed,b3
90,target,HF,1,1.45599997,1,5,Long,Immed,b3
91,lure,LF,0,0.781000018,1,5,Long,Immed,b3
92,lure,LF,0,0.89200002,1,5,Long,Immed,b3
93,lure,HF,0,1.067000031,1,5,Long,Immed,b3
94,target,LF,0,0.811999977,0,5,Long,Immed,b3
95,target,LF,1,0.723999977,1,5,Long,Immed,b3
0,lure,HF,0,2.881999969,1,5,Short,Delay,b0
1,lure,HF,0,0.739000022,1,5,Short,Delay,b0
2,target,HF,1,0.778999984,1,5,Short,Delay,b0
3,lure,HF,1,0.978999972,0,5,Short,Delay,b0
4,target,LF,1,0.740999997,1,5,Short,Delay,b0
5,target,HF,1,1.253000021,1,5,Short,Delay,b0
6,lure,LF,0,1.43599999,1,5,Short,Delay,b0
7,target,LF,1,0.755999982,1,5,Short,Delay,b0
8,lure,HF,0,1.098999977,1,5,Short,Delay,b0
9,target,LF,1,0.72299999,1,5,Short,Delay,b0
10,lure,LF,0,0.626999974,1,5,Short,Delay,b0
11,lure,HF,0,0.779999971,1,5,Short,Delay,b0
12,target,LF,1,0.723999977,1,5,Short,Delay,b0
13,target,HF,1,0.869000018,1,5,Short,Delay,b0
14,lure,LF,1,2.355999947,0,5,Short,Delay,b0
15,target,LF,1,0.787,1,5,Short,Delay,b0
16,target,HF,0,1.003999949,0,5,Short,Delay,b0
17,target,HF,1,1.108999968,1,5,Short,Delay,b0
18,target,HF,1,0.852999985,1,5,Short,Delay,b0
19,target,LF,1,0.65200001,1,5,Short,Delay,b0
20,lure,LF,0,0.787999988,1,5,Short,Delay,b0
21,lure,HF,0,1.156999946,1,5,Short,Delay,b0
22,lure,LF,0,0.978999972,1,5,Short,Delay,b0
23,lure,LF,0,0.555000007,1,5,Short,Delay,b0
0,target,LF,1,1.082999945,1,5,Long,Delay,b0
1,lure,LF,0,0.667999983,1,5,Long,Delay,b0
2,lure,LF,0,0.684000015,1,5,Long,Delay,b0
3,lure,LF,0,0.531000018,1,5,Long,Delay,b0
4,lure,HF,0,0.954999983,1,5,Long,Delay,b0
5,target,HF,1,1.067999959,1,5,Long,Delay,b0
6,target,HF,1,3.275000095,1,5,Long,Delay,b0
7,target,LF,1,1.059999943,1,5,Long,Delay,b0
8,lure,LF,0,0.749000013,1,5,Long,Delay,b0
9,lure,LF,0,0.781000018,1,5,Long,Delay,b0
10,lure,LF,0,0.842999995,1,5,Long,Delay,b0
11,target,LF,0,0.563000023,0,5,Long,Delay,b0
12,target,HF,0,3.075999975,0,5,Long,Delay,b0
13,lure,LF,0,0.82099998,1,5,Long,Delay,b0
14,target,HF,1,0.763000011,1,5,Long,Delay,b0
15,target,LF,1,2.203000069,1,5,Long,Delay,b0
16,lure,LF,0,0.828000009,1,5,Long,Delay,b0
17,lure,HF,0,1.139999986,1,5,Long,Delay,b0
18,target,LF,1,1.707999945,1,5,Long,Delay,b0
19,lure,LF,0,0.716000021,1,5,Long,Delay,b0
20,target,HF,1,0.725000024,1,5,Long,Delay,b0
21,lure,LF,1,1.004999995,0,5,Long,Delay,b0
22,target,LF,1,0.901000023,1,5,Long,Delay,b0
23,lure,LF,0,1.42900002,1,5,Long,Delay,b0
24,target,LF,1,1.539999962,1,5,Long,Delay,b1
25,target,HF,1,1.610999942,1,5,Long,Delay,b1
26,target,HF,1,0.731000006,1,5,Long,Delay,b1
27,target,HF,0,1.317999959,0,5,Long,Delay,b1
28,lure,HF,0,1.774000049,1,5,Long,Delay,b1
29,lure,HF,0,2.773000002,1,5,Long,Delay,b1
30,target,HF,1,0.763000011,1,5,Long,Delay,b1
31,target,HF,1,1.123999953,1,5,Long,Delay,b1
32,lure,HF,0,1.363000035,1,5,Long,Delay,b1
33,lure,LF,0,0.898999989,1,5,Long,Delay,b1
34,target,HF,1,1.019000053,1,5,Long,Delay,b1
35,target,HF,1,0.693000019,1,5,Long,Delay,b1
36,target,HF,1,0.834999979,1,5,Long,Delay,b1
37,target,LF,1,1.036000013,1,5,Long,Delay,b1
38,lure,HF,0,1.10800004,1,5,Long,Delay,b1
39,target,HF,1,0.635999978,1,5,Long,Delay,b1
40,target,HF,1,0.763999999,1,5,Long,Delay,b1
41,target,LF,1,0.74000001,1,5,Long,Delay,b1
42,target,LF,1,0.714999974,1,5,Long,Delay,b1
43,target,LF,0,0.930999994,0,5,Long,Delay,b1
44,target,HF,1,0.771000028,1,5,Long,Delay,b1
45,target,LF,1,2.474999905,1,5,Long,Delay,b1
46,target,LF,1,1.475000024,1,5,Long,Delay,b1
47,target,HF,1,0.80400002,1,5,Long,Delay,b1
48,lure,HF,0,2.371999979,1,5,Long,Delay,b2
49,target,LF,1,1.226999998,1,5,Long,Delay,b2
50,lure,LF,0,0.875999987,1,5,Long,Delay,b2
51,lure,HF,0,0.95599997,1,5,Long,Delay,b2
52,target,HF,1,1.059000015,1,5,Long,Delay,b2
53,target,HF,1,0.683000028,1,5,Long,Delay,b2
54,lure,HF,0,0.842999995,1,5,Long,Delay,b2
55,target,LF,1,0.74000001,1,5,Long,Delay,b2
56,target,LF,0,1.322999954,0,5,Long,Delay,b2
57,lure,HF,1,0.691999972,0,5,Long,Delay,b2
58,lure,LF,0,0.763000011,1,5,Long,Delay,b2
59,lure,HF,0,1.371000051,1,5,Long,Delay,b2
60,lure,HF,0,1.123999953,1,5,Long,Delay,b2
61,lure,HF,0,0.860000014,1,5,Long,Delay,b2
62,lure,HF,0,0.828999996,1,5,Long,Delay,b2
63,lure,HF,0,0.748000026,1,5,Long,Delay,b2
64,target,LF,1,0.916000009,1,5,Long,Delay,b2
65,lure,LF,1,1.730999947,0,5,Long,Delay,b2
66,target,LF,1,1.218999982,1,5,Long,Delay,b2
67,lure,LF,0,1.171000004,1,5,Long,Delay,b2
68,target,LF,1,0.714999974,1,5,Long,Delay,b2
69,target,HF,0,1.651000023,0,5,Long,Delay,b2
70,lure,HF,0,3.763000011,1,5,Long,Delay,b2
71,lure,LF,0,0.836000025,1,5,Long,Delay,b2
72,lure,HF,0,1.011999965,1,5,Long,Delay,b3
73,lure,HF,1,0.758000016,0,5,Long,Delay,b3
74,lure,HF,0,0.755999982,1,5,Long,Delay,b3
75,target,LF,0,1.442999959,0,5,Long,Delay,b3
76,lure,LF,0,0.866999984,1,5,Long,Delay,b3
77,target,LF,1,1.050999999,1,5,Long,Delay,b3
78,target,HF,1,1.978999972,1,5,Long,Delay,b3
79,target,LF,1,1.098999977,1,5,Long,Delay,b3
80,lure,HF,1,3.219000101,0,5,Long,Delay,b3
81,lure,LF,0,0.981999993,1,5,Long,Delay,b3
82,lure,HF,0,0.819999993,1,5,Long,Delay,b3
83,lure,HF,1,2.740999937,0,5,Long,Delay,b3
84,lure,HF,0,1.444000006,1,5,Long,Delay,b3
85,lure,LF,0,0.827000022,1,5,Long,Delay,b3
86,target,LF,1,2.299000025,1,5,Long,Delay,b3
87,target,LF,0,0.954999983,0,5,Long,Delay,b3
88,lure,LF,0,0.754999995,1,5,Long,Delay,b3
89,lure,LF,0,0.731000006,1,5,Long,Delay,b3
90,target,HF,0,0.763000011,0,5,Long,Delay,b3
91,lure,LF,0,1.05400002,1,5,Long,Delay,b3
92,lure,HF,0,0.726000011,1,5,Long,Delay,b3
93,target,HF,1,0.963999987,1,5,Long,Delay,b3
94,lure,LF,0,1.187999964,1,5,Long,Delay,b3
95,target,HF,1,1.340000033,1,5,Long,Delay,b3
0,lure,LF,0,3.450999975,1,5,Short,Immed,b0
1,lure,HF,0,0.836000025,1,5,Short,Immed,b0
2,target,HF,1,0.851000011,1,5,Short,Immed,b0
3,lure,HF,0,1.243999958,1,5,Short,Immed,b0
4,target,LF,1,0.754999995,1,5,Short,Immed,b0
5,lure,LF,0,0.555999994,1,5,Short,Immed,b0
6,target,LF,1,2.970999956,1,5,Short,Immed,b0
7,target,LF,1,0.763000011,1,5,Short,Immed,b0
8,lure,LF,0,0.651000023,1,5,Short,Immed,b0
9,target,HF,1,0.795000017,1,5,Short,Immed,b0
10,lure,HF,0,0.763999999,1,5,Short,Immed,b0
11,target,LF,0,1.162999988,0,5,Short,Immed,b0
12,lure,HF,0,0.588,1,5,Short,Immed,b0
13,lure,HF,0,1.595999956,1,5,Short,Immed,b0
14,lure,LF,0,0.620000005,1,5,Short,Immed,b0
15,target,HF,1,0.778999984,1,5,Short,Immed,b0
16,target,HF,1,1.164000034,1,5,Short,Immed,b0
17,lure,LF,0,0.555000007,1,5,Short,Immed,b0
18,target,HF,1,1.093000054,1,5,Short,Immed,b0
19,target,HF,0,2.029999971,0,5,Short,Immed,b0
20,target,LF,1,0.708999991,1,5,Short,Immed,b0
21,lure,LF,0,0.991999984,1,5,Short,Immed,b0
22,lure,HF,0,0.819999993,1,5,Short,Immed,b0
23,target,LF,1,0.739000022,1,5,Short,Immed,b0
0,target,HF,1,0.875,1,6,Long,Delay,b0
1,target,LF,1,1.220000029,1,6,Long,Delay,b0
2,target,LF,1,0.611000001,1,6,Long,Delay,b0
3,lure,LF,0,1.378999949,1,6,Long,Delay,b0
4,target,HF,1,0.788999975,1,6,Long,Delay,b0
5,target,HF,1,0.90200001,1,6,Long,Delay,b0
6,target,LF,1,1.044999957,1,6,Long,Delay,b0
7,lure,LF,0,0.837000012,1,6,Long,Delay,b0
8,lure,HF,0,0.930999994,1,6,Long,Delay,b0
9,lure,LF,0,0.651000023,1,6,Long,Delay,b0
10,target,HF,0,0.819999993,0,6,Long,Delay,b0
11,lure,HF,0,0.867999971,1,6,Long,Delay,b0
12,target,LF,1,0.628000021,1,6,Long,Delay,b0
13,lure,LF,0,1.085000038,1,6,Long,Delay,b0
14,target,LF,1,0.836000025,1,6,Long,Delay,b0
15,lure,HF,0,0.755999982,1,6,Long,Delay,b0
16,lure,LF,0,0.930999994,1,6,Long,Delay,b0
17,target,LF,1,0.72299999,1,6,Long,Delay,b0
18,lure,LF,0,0.666999996,1,6,Long,Delay,b0
19,lure,LF,0,1.595000029,1,6,Long,Delay,b0
20,target,HF,1,2.075999975,1,6,Long,Delay,b0
21,lure,HF,0,0.699999988,1,6,Long,Delay,b0
22,target,LF,1,0.978999972,1,6,Long,Delay,b0
23,lure,LF,0,1.547999978,1,6,Long,Delay,b0
24,lure,LF,0,0.588,1,6,Long,Delay,b1
25,lure,HF,0,0.65200001,1,6,Long,Delay,b1
26,lure,HF,0,0.596000016,1,6,Long,Delay,b1
27,target,HF,1,1.299999952,1,6,Long,Delay,b1
28,target,HF,1,0.620999992,1,6,Long,Delay,b1
29,target,HF,0,1.029000044,0,6,Long,Delay,b1
30,lure,LF,0,1.093000054,1,6,Long,Delay,b1
31,target,HF,1,0.73299998,1,6,Long,Delay,b1
32,lure,LF,0,0.754999995,1,6,Long,Delay,b1
33,target,HF,1,0.834999979,1,6,Long,Delay,b1
34,lure,LF,0,0.572000027,1,6,Long,Delay,b1
35,target,HF,0,1.235000014,0,6,Long,Delay,b1
36,target,HF,1,0.95599997,1,6,Long,Delay,b1
37,lure,LF,0,0.660000026,1,6,Long,Delay,b1
38,lure,HF,0,0.675999999,1,6,Long,Delay,b1
39,lure,HF,0,0.675999999,1,6,Long,Delay,b1
40,lure,HF,0,0.588,1,6,Long,Delay,b1
41,target,HF,0,0.755999982,0,6,Long,Delay,b1
42,lure,HF,0,0.819000006,1,6,Long,Delay,b1
43,lure,HF,1,1.427000046,0,6,Long,Delay,b1
44,lure,LF,0,0.611000001,1,6,Long,Delay,b1
45,lure,LF,0,0.971000016,1,6,Long,Delay,b1
46,target,LF,1,0.675000012,1,6,Long,Delay,b1
47,lure,HF,0,1.506999969,1,6,Long,Delay,b1
48,target,HF,1,0.723999977,1,6,Long,Delay,b2
49,target,LF,1,0.578999996,1,6,Long,Delay,b2
50,lure,HF,0,0.74000001,1,6,Long,Delay,b2
51,target,HF,0,0.851999998,0,6,Long,Delay,b2
52,target,HF,1,1.284000039,1,6,Long,Delay,b2
53,target,HF,1,0.811999977,1,6,Long,Delay,b2
54,target,LF,1,0.916000009,1,6,Long,Delay,b2
55,target,LF,1,0.611999989,1,6,Long,Delay,b2
56,target,LF,1,0.626999974,1,6,Long,Delay,b2
57,lure,LF,0,1.914999962,1,6,Long,Delay,b2
58,target,LF,1,1.154999971,1,6,Long,Delay,b2
59,lure,HF,0,0.842999995,1,6,Long,Delay,b2
60,lure,LF,0,0.666999996,1,6,Long,Delay,b2
61,target,HF,1,0.963,1,6,Long,Delay,b2
62,lure,HF,0,1.411999941,1,6,Long,Delay,b2
63,target,LF,1,0.587000012,1,6,Long,Delay,b2
64,lure,HF,0,0.781000018,1,6,Long,Delay,b2
65,target,LF,1,0.603999972,1,6,Long,Delay,b2
66,lure,HF,0,2.084000111,1,6,Long,Delay,b2
67,lure,HF,0,0.748000026,1,6,Long,Delay,b2
68,lure,LF,0,0.563000023,1,6,Long,Delay,b2
69,target,LF,1,0.739000022,1,6,Long,Delay,b2
70,target,HF,1,0.771000028,1,6,Long,Delay,b2
71,target,LF,1,0.81099999,1,6,Long,Delay,b2
72,target,LF,1,0.690999985,1,6,Long,Delay,b3
73,lure,HF,0,1.394999981,1,6,Long,Delay,b3
74,lure,HF,0,0.883000016,1,6,Long,Delay,b3
75,target,HF,1,0.93900001,1,6,Long,Delay,b3
76,target,LF,0,0.875999987,0,6,Long,Delay,b3
77,target,LF,1,0.572000027,1,6,Long,Delay,b3
78,lure,LF,0,0.779999971,1,6,Long,Delay,b3
79,lure,HF,0,0.772000015,1,6,Long,Delay,b3
80,target,HF,0,1.067999959,0,6,Long,Delay,b3
81,lure,HF,0,0.588999987,1,6,Long,Delay,b3
82,target,LF,0,0.949000001,0,6,Long,Delay,b3
83,target,HF,1,0.97299999,1,6,Long,Delay,b3
84,lure,LF,0,0.685000002,1,6,Long,Delay,b3
85,lure,HF,0,2.309000015,1,6,Long,Delay,b3
86,target,LF,0,0.57099998,0,6,Long,Delay,b3
87,target,HF,1,0.714999974,1,6,Long,Delay,b3
88,lure,LF,0,0.866999984,1,6,Long,Delay,b3
89,lure,HF,1,0.677999973,0,6,Long,Delay,b3
90,target,LF,1,0.644999981,1,6,Long,Delay,b3
91,lure,LF,0,0.614000022,1,6,Long,Delay,b3
92,target,LF,1,0.621999979,1,6,Long,Delay,b3
93,lure,LF,0,0.621999979,1,6,Long,Delay,b3
94,target,HF,0,1.006000042,0,6,Long,Delay,b3
95,lure,LF,0,0.630999982,1,6,Long,Delay,b3
0,lure,HF,0,3.315000057,1,6,Short,Immed,b0
1,lure,LF,0,0.787,1,6,Short,Immed,b0
2,target,LF,1,0.954999983,1,6,Short,Immed,b0
3,target,HF,1,0.63499999,1,6,Short,Immed,b0
4,target,HF,1,1.986999989,1,6,Short,Immed,b0
5,target,LF,1,0.63499999,1,6,Short,Immed,b0
6,target,LF,1,0.523000002,1,6,Short,Immed,b0
7,lure,LF,0,0.795000017,1,6,Short,Immed,b0
8,target,HF,1,0.707000017,1,6,Short,Immed,b0
9,lure,HF,0,0.80400002,1,6,Short,Immed,b0
10,lure,LF,0,0.603999972,1,6,Short,Immed,b0
11,lure,LF,0,0.541999996,1,6,Short,Immed,b0
12,lure,HF,1,1.429999948,0,6,Short,Immed,b0
13,lure,LF,0,0.629999995,1,6,Short,Immed,b0
14,target,LF,1,0.741999984,1,6,Short,Immed,b0
15,target,HF,0,0.822000027,0,6,Short,Immed,b0
16,target,HF,0,0.73299998,0,6,Short,Immed,b0
17,target,HF,0,0.72299999,0,6,Short,Immed,b0
18,target,LF,1,0.666999996,1,6,Short,Immed,b0
19,lure,HF,0,1.202999949,1,6,Short,Immed,b0
20,lure,HF,0,0.683000028,1,6,Short,Immed,b0
21,target,LF,1,0.626999974,1,6,Short,Immed,b0
22,lure,HF,0,0.714999974,1,6,Short,Immed,b0
23,lure,LF,0,0.63499999,1,6,Short,Immed,b0
0,target,HF,1,2.194999933,1,6,Short,Delay,b0
1,target,LF,0,2.194999933,0,6,Short,Delay,b0
2,lure,LF,0,0.842999995,1,6,Short,Delay,b0
3,lure,HF,0,0.851999998,1,6,Short,Delay,b0
4,lure,LF,0,0.684000015,1,6,Short,Delay,b0
5,target,LF,1,0.907999992,1,6,Short,Delay,b0
6,lure,HF,0,0.708000004,1,6,Short,Delay,b0
7,target,LF,0,0.74000001,0,6,Short,Delay,b0
8,lure,HF,0,1.195000052,1,6,Short,Delay,b0
9,lure,LF,0,1.307999969,1,6,Short,Delay,b0
10,target,HF,1,1.003000021,1,6,Short,Delay,b0
11,target,HF,1,0.787,1,6,Short,Delay,b0
12,lure,HF,0,0.754999995,1,6,Short,Delay,b0
13,target,HF,1,0.595000029,1,6,Short,Delay,b0
14,target,LF,1,0.675000012,1,6,Short,Delay,b0
15,lure,LF,1,0.555000007,0,6,Short,Delay,b0
16,lure,LF,0,0.855000019,1,6,Short,Delay,b0
17,target,LF,0,0.666999996,0,6,Short,Delay,b0
18,lure,HF,0,1.052000046,1,6,Short,Delay,b0
19,target,LF,1,0.588,1,6,Short,Delay,b0
20,target,HF,1,0.931999981,1,6,Short,Delay,b0
21,lure,LF,0,0.684000015,1,6,Short,Delay,b0
22,lure,HF,1,1.034999967,0,6,Short,Delay,b0
23,target,HF,1,0.851000011,1,6,Short,Delay,b0
0,lure,LF,0,2.03399992,1,6,Long,Immed,b0
1,target,HF,1,0.619000018,1,6,Long,Immed,b0
2,lure,LF,0,0.708000004,1,6,Long,Immed,b0
3,target,LF,1,0.620000005,1,6,Long,Immed,b0
4,target,HF,1,0.523999989,1,6,Long,Immed,b0
5,lure,HF,0,1.411999941,1,6,Long,Immed,b0
6,target,HF,0,0.772000015,0,6,Long,Immed,b0
7,target,LF,1,0.813000023,1,6,Long,Immed,b0
8,lure,HF,0,0.915000021,1,6,Long,Immed,b0
9,target,LF,1,0.587000012,1,6,Long,Immed,b0
10,lure,HF,0,0.778999984,1,6,Long,Immed,b0
11,target,LF,1,0.619000018,1,6,Long,Immed,b0
12,target,HF,1,0.72299999,1,6,Long,Immed,b0
13,target,LF,1,0.538999975,1,6,Long,Immed,b0
14,target,LF,1,0.524999976,1,6,Long,Immed,b0
15,lure,LF,0,0.805000007,1,6,Long,Immed,b0
16,target,LF,1,0.588999987,1,6,Long,Immed,b0
17,target,HF,1,0.501999974,1,6,Long,Immed,b0
18,target,LF,1,0.550000012,1,6,Long,Immed,b0
19,target,HF,1,1.238000035,1,6,Long,Immed,b0
20,target,HF,1,0.828000009,1,6,Long,Immed,b0
21,lure,LF,0,0.867999971,1,6,Long,Immed,b0
22,lure,LF,0,0.611999989,1,6,Long,Immed,b0
23,lure,LF,0,0.867999971,1,6,Long,Immed,b0
24,lure,HF,1,0.707000017,0,6,Long,Immed,b1
25,lure,HF,0,1.148000002,1,6,Long,Immed,b1
26,lure,LF,0,0.714999974,1,6,Long,Immed,b1
27,lure,HF,0,1.02699995,1,6,Long,Immed,b1
28,lure,LF,0,1.011000037,1,6,Long,Immed,b1
29,lure,HF,0,0.628000021,1,6,Long,Immed,b1
30,target,LF,1,0.660000026,1,6,Long,Immed,b1
31,target,LF,1,0.578999996,1,6,Long,Immed,b1
32,target,HF,1,0.930999994,1,6,Long,Immed,b1
33,lure,HF,1,0.514999986,0,6,Long,Immed,b1
34,lure,HF,1,0.547999978,0,6,Long,Immed,b1
35,lure,HF,0,0.755999982,1,6,Long,Immed,b1
36,target,LF,1,0.940999985,1,6,Long,Immed,b1
37,target,LF,1,0.666999996,1,6,Long,Immed,b1
38,target,LF,1,0.555000007,1,6,Long,Immed,b1
39,lure,HF,0,0.842999995,1,6,Long,Immed,b1
40,lure,LF,0,3.563999891,1,6,Long,Immed,b1
41,lure,HF,0,3.362999916,1,6,Long,Immed,b1
42,target,HF,0,0.819000006,0,6,Long,Immed,b1
43,lure,LF,0,0.836000025,1,6,Long,Immed,b1
44,target,HF,1,2.196000099,1,6,Long,Immed,b1
45,lure,HF,0,0.980000019,1,6,Long,Immed,b1
46,lure,HF,0,1.011999965,1,6,Long,Immed,b1
47,target,HF,1,0.675000012,1,6,Long,Immed,b1
48,lure,HF,0,0.683000028,1,6,Long,Immed,b2
49,target,HF,0,0.778999984,0,6,Long,Immed,b2
50,target,LF,1,0.611000001,1,6,Long,Immed,b2
51,lure,LF,0,0.611000001,1,6,Long,Immed,b2
52,lure,LF,0,0.836000025,1,6,Long,Immed,b2
53,target,HF,0,0.731000006,0,6,Long,Immed,b2
54,lure,LF,0,1.218999982,1,6,Long,Immed,b2
55,target,HF,1,0.65200001,1,6,Long,Immed,b2
56,target,HF,1,0.65200001,1,6,Long,Immed,b2
57,target,HF,0,1.315999985,0,6,Long,Immed,b2
58,target,LF,1,0.65200001,1,6,Long,Immed,b2
59,lure,HF,1,0.95599997,0,6,Long,Immed,b2
60,lure,HF,0,0.916000009,1,6,Long,Immed,b2
61,lure,HF,0,2.082999945,1,6,Long,Immed,b2
62,target,HF,0,0.690999985,0,6,Long,Immed,b2
63,target,HF,1,0.619000018,1,6,Long,Immed,b2
64,lure,LF,1,1.82099998,0,6,Long,Immed,b2
65,target,HF,0,0.700999975,0,6,Long,Immed,b2
66,lure,LF,0,0.90200001,1,6,Long,Immed,b2
67,lure,LF,0,0.773000002,1,6,Long,Immed,b2
68,target,HF,0,0.579999983,0,6,Long,Immed,b2
69,target,LF,1,0.65200001,1,6,Long,Immed,b2
70,lure,HF,0,3.884000063,1,6,Long,Immed,b2
71,lure,LF,0,0.578999996,1,6,Long,Immed,b2
72,target,LF,0,0.746999979,0,6,Long,Immed,b3
73,target,LF,1,0.683000028,1,6,Long,Immed,b3
74,lure,LF,1,0.588,0,6,Long,Immed,b3
75,target,HF,0,0.611000001,0,6,Long,Immed,b3
76,lure,HF,0,0.538999975,1,6,Long,Immed,b3
77,lure,HF,0,0.754999995,1,6,Long,Immed,b3
78,target,LF,0,1.355000019,0,6,Long,Immed,b3
79,lure,LF,0,0.531000018,1,6,Long,Immed,b3
80,lure,HF,0,0.65200001,1,6,Long,Immed,b3
81,target,HF,0,1.116000056,0,6,Long,Immed,b3
82,lure,LF,0,0.717999995,1,6,Long,Immed,b3
83,target,LF,1,0.822000027,1,6,Long,Immed,b3
84,lure,LF,0,0.662,1,6,Long,Immed,b3
85,target,LF,1,0.717999995,1,6,Long,Immed,b3
86,lure,LF,1,1.006000042,0,6,Long,Immed,b3
87,lure,LF,0,0.514999986,1,6,Long,Immed,b3
88,target,LF,0,0.930999994,0,6,Long,Immed,b3
89,target,HF,1,1.57099998,1,6,Long,Immed,b3
90,lure,LF,1,0.63499999,0,6,Long,Immed,b3
91,lure,HF,0,1.003000021,1,6,Long,Immed,b3
92,target,LF,1,0.626999974,1,6,Long,Immed,b3
93,target,LF,0,0.578999996,0,6,Long,Immed,b3
94,lure,HF,0,0.883000016,1,6,Long,Immed,b3
95,target,HF,0,0.63499999,0,6,Long,Immed,b3
0,lure,HF,0,1.434000015,1,7,Long,Immed,b0
1,target,HF,1,0.739000022,1,7,Long,Immed,b0
2,lure,LF,0,1.251000047,1,7,Long,Immed,b0
3,lure,HF,0,1.050999999,1,7,Long,Immed,b0
4,lure,HF,0,1.019000053,1,7,Long,Immed,b0
5,target,LF,1,0.763999999,1,7,Long,Immed,b0
6,lure,LF,0,0.875,1,7,Long,Immed,b0
7,target,LF,1,0.643000007,1,7,Long,Immed,b0
8,lure,LF,0,1.023000002,1,7,Long,Immed,b0
9,target,HF,1,0.694000006,1,7,Long,Immed,b0
10,lure,HF,0,0.838,1,7,Long,Immed,b0
11,lure,HF,0,0.726000011,1,7,Long,Immed,b0
12,lure,LF,0,0.829999983,1,7,Long,Immed,b0
13,lure,HF,0,0.675000012,1,7,Long,Immed,b0
14,target,HF,1,3.131000042,1,7,Long,Immed,b0
15,target,HF,1,0.675000012,1,7,Long,Immed,b0
16,lure,HF,0,0.851000011,1,7,Long,Immed,b0
17,lure,LF,0,0.859000027,1,7,Long,Immed,b0
18,target,HF,1,0.866999984,1,7,Long,Immed,b0
19,target,HF,1,0.690999985,1,7,Long,Immed,b0
20,target,HF,1,0.723999977,1,7,Long,Immed,b0
21,target,LF,1,0.716000021,1,7,Long,Immed,b0
22,target,HF,1,0.667999983,1,7,Long,Immed,b0
23,target,HF,1,0.82099998,1,7,Long,Immed,b0
24,target,LF,0,2.066999912,0,7,Long,Immed,b1
25,target,HF,0,2.107000113,0,7,Long,Immed,b1
26,target,LF,1,0.787,1,7,Long,Immed,b1
27,lure,LF,1,1.011999965,0,7,Long,Immed,b1
28,lure,LF,0,2.178999901,1,7,Long,Immed,b1
29,target,LF,1,0.675000012,1,7,Long,Immed,b1
30,lure,LF,0,0.828000009,1,7,Long,Immed,b1
31,target,HF,1,0.684000015,1,7,Long,Immed,b1
32,target,LF,0,3.052999973,0,7,Long,Immed,b1
33,target,HF,1,1.036999941,1,7,Long,Immed,b1
34,lure,HF,0,0.763999999,1,7,Long,Immed,b1
35,target,LF,1,1.947999954,1,7,Long,Immed,b1
36,target,HF,1,0.643000007,1,7,Long,Immed,b1
37,target,LF,1,0.538999975,1,7,Long,Immed,b1
38,target,LF,1,0.578999996,1,7,Long,Immed,b1
39,lure,LF,0,0.779999971,1,7,Long,Immed,b1
40,target,LF,1,0.626999974,1,7,Long,Immed,b1
41,target,HF,0,0.802999973,0,7,Long,Immed,b1
42,lure,HF,0,2.756000042,1,7,Long,Immed,b1
43,target,HF,0,0.603999972,0,7,Long,Immed,b1
44,target,HF,1,0.65200001,1,7,Long,Immed,b1
45,lure,LF,1,0.755999982,0,7,Long,Immed,b1
46,lure,HF,0,1.10800004,1,7,Long,Immed,b1
47,lure,HF,0,1.235999942,1,7,Long,Immed,b1
48,lure,HF,0,1.02699995,1,7,Long,Immed,b2
49,target,LF,1,0.611000001,1,7,Long,Immed,b2
50,lure,HF,1,1.003000021,0,7,Long,Immed,b2
51,lure,HF,0,1.708999991,1,7,Long,Immed,b2
52,target,LF,1,0.658999979,1,7,Long,Immed,b2
53,target,HF,0,0.751999974,0,7,Long,Immed,b2
54,target,LF,1,0.859000027,1,7,Long,Immed,b2
55,lure,LF,0,0.75,1,7,Long,Immed,b2
56,target,LF,1,0.677999973,1,7,Long,Immed,b2
57,target,HF,1,0.699000001,1,7,Long,Immed,b2
58,target,HF,1,0.966000021,1,7,Long,Immed,b2
59,lure,LF,0,0.853999972,1,7,Long,Immed,b2
60,lure,HF,0,0.828999996,1,7,Long,Immed,b2
61,lure,LF,0,0.700999975,1,7,Long,Immed,b2
62,lure,LF,0,2.96600008,1,7,Long,Immed,b2
63,target,HF,1,0.837000012,1,7,Long,Immed,b2
64,lure,LF,0,1.307000041,1,7,Long,Immed,b2
65,lure,HF,0,4.532999992,1,7,Long,Immed,b2
66,lure,HF,0,1.093000054,1,7,Long,Immed,b2
67,lure,HF,0,3.154999971,1,7,Long,Immed,b2
68,target,LF,1,0.707000017,1,7,Long,Immed,b2
69,lure,HF,0,0.811999977,1,7,Long,Immed,b2
70,lure,LF,0,0.778999984,1,7,Long,Immed,b2
71,target,LF,1,1.613000035,1,7,Long,Immed,b2
72,target,LF,1,0.597000003,1,7,Long,Immed,b3
73,lure,HF,1,0.573000014,0,7,Long,Immed,b3
74,lure,HF,0,0.717999995,1,7,Long,Immed,b3
75,lure,LF,0,0.750999987,1,7,Long,Immed,b3
76,target,LF,1,0.73299998,1,7,Long,Immed,b3
77,lure,LF,0,0.691999972,1,7,Long,Immed,b3
78,target,LF,0,0.691999972,0,7,Long,Immed,b3
79,lure,LF,0,0.660000026,1,7,Long,Immed,b3
80,lure,HF,0,0.667999983,1,7,Long,Immed,b3
81,target,HF,1,1.123000026,1,7,Long,Immed,b3
82,target,LF,1,1.667000055,1,7,Long,Immed,b3
83,target,HF,0,0.859000027,0,7,Long,Immed,b3
84,lure,LF,0,0.619000018,1,7,Long,Immed,b3
85,target,LF,1,0.658999979,1,7,Long,Immed,b3
86,lure,HF,0,0.675000012,1,7,Long,Immed,b3
87,lure,LF,0,0.860000014,1,7,Long,Immed,b3
88,target,LF,1,1.235000014,1,7,Long,Immed,b3
89,target,HF,1,1.483999968,1,7,Long,Immed,b3
90,target,HF,1,0.667999983,1,7,Long,Immed,b3
91,target,LF,1,0.555999994,1,7,Long,Immed,b3
92,lure,HF,0,1.396000028,1,7,Long,Immed,b3
93,lure,LF,0,1.139000058,1,7,Long,Immed,b3
94,lure,LF,0,0.578999996,1,7,Long,Immed,b3
95,lure,LF,0,1.218999982,1,7,Long,Immed,b3
0,lure,LF,0,1.00999999,1,7,Short,Immed,b0
1,target,HF,1,0.907000005,1,7,Short,Immed,b0
2,target,HF,1,0.63499999,1,7,Short,Immed,b0
3,target,HF,1,1.003000021,1,7,Short,Immed,b0
4,lure,HF,0,0.620000005,1,7,Short,Immed,b0
5,lure,HF,0,0.635999978,1,7,Short,Immed,b0
6,lure,LF,0,0.628000021,1,7,Short,Immed,b0
7,target,LF,1,1.059999943,1,7,Short,Immed,b0
8,target,LF,0,1.019999981,0,7,Short,Immed,b0
9,target,LF,1,1.276000023,1,7,Short,Immed,b0
10,lure,HF,0,0.971000016,1,7,Short,Immed,b0
11,target,HF,1,0.675000012,1,7,Short,Immed,b0
12,lure,LF,0,0.579999983,1,7,Short,Immed,b0
13,target,LF,1,0.851000011,1,7,Short,Immed,b0
14,lure,HF,0,0.531000018,1,7,Short,Immed,b0
15,target,LF,0,0.643000007,0,7,Short,Immed,b0
16,lure,HF,0,0.802999973,1,7,Short,Immed,b0
17,lure,LF,0,0.578999996,1,7,Short,Immed,b0
18,target,HF,1,0.899999976,1,7,Short,Immed,b0
19,lure,LF,0,0.5,1,7,Short,Immed,b0
20,lure,HF,0,0.5,1,7,Short,Immed,b0
21,lure,LF,0,0.547999978,1,7,Short,Immed,b0
22,target,LF,1,0.644999981,1,7,Short,Immed,b0
23,target,HF,1,1.123999953,1,7,Short,Immed,b0
0,lure,HF,0,2.229000092,1,7,Short,Delay,b0
1,target,HF,0,0.971000016,0,7,Short,Delay,b0
2,lure,LF,0,0.754999995,1,7,Short,Delay,b0
3,lure,HF,0,0.860000014,1,7,Short,Delay,b0
4,target,HF,1,0.660000026,1,7,Short,Delay,b0
5,lure,HF,0,0.748000026,1,7,Short,Delay,b0
6,target,HF,1,0.875999987,1,7,Short,Delay,b0
7,lure,LF,0,0.708999991,1,7,Short,Delay,b0
8,target,LF,1,0.691999972,1,7,Short,Delay,b0
9,target,LF,1,0.899999976,1,7,Short,Delay,b0
10,target,HF,1,0.80400002,1,7,Short,Delay,b0
11,target,LF,1,0.851999998,1,7,Short,Delay,b0
12,target,HF,1,0.787,1,7,Short,Delay,b0
13,lure,HF,0,0.675999999,1,7,Short,Delay,b0
14,target,LF,1,0.81099999,1,7,Short,Delay,b0
15,target,LF,0,0.531000018,0,7,Short,Delay,b0
16,lure,HF,0,0.883000016,1,7,Short,Delay,b0
17,target,HF,1,0.578999996,1,7,Short,Delay,b0
18,lure,LF,0,0.490999997,1,7,Short,Delay,b0
19,target,LF,1,0.699000001,1,7,Short,Delay,b0
20,lure,LF,0,0.538999975,1,7,Short,Delay,b0
21,lure,LF,0,0.611999989,1,7,Short,Delay,b0
22,lure,LF,0,0.629000008,1,7,Short,Delay,b0
23,lure,HF,0,0.899999976,1,7,Short,Delay,b0
0,lure,HF,0,0.970000029,1,7,Long,Delay,b0
1,lure,HF,0,0.611000001,1,7,Long,Delay,b0
2,lure,LF,0,1.019000053,1,7,Long,Delay,b0
3,target,HF,1,0.620000005,1,7,Long,Delay,b0
4,target,LF,0,0.65200001,0,7,Long,Delay,b0
5,lure,LF,0,0.68599999,1,7,Long,Delay,b0
6,lure,LF,0,0.541999996,1,7,Long,Delay,b0
7,target,HF,0,0.805999994,0,7,Long,Delay,b0
8,target,LF,1,0.702000022,1,7,Long,Delay,b0
9,lure,HF,0,0.838,1,7,Long,Delay,b0
10,lure,HF,0,0.667999983,1,7,Long,Delay,b0
11,target,LF,1,0.65200001,1,7,Long,Delay,b0
12,target,HF,1,0.73299998,1,7,Long,Delay,b0
13,lure,LF,0,0.538999975,1,7,Long,Delay,b0
14,lure,LF,0,0.538999975,1,7,Long,Delay,b0
15,target,LF,1,0.63499999,1,7,Long,Delay,b0
16,lure,HF,0,0.531000018,1,7,Long,Delay,b0
17,lure,LF,0,0.523999989,1,7,Long,Delay,b0
18,lure,LF,0,0.573000014,1,7,Long,Delay,b0
19,lure,HF,0,0.541000009,1,7,Long,Delay,b0
20,target,HF,1,0.846000016,1,7,Long,Delay,b0
21,target,HF,1,0.757000029,1,7,Long,Delay,b0
22,lure,LF,0,0.773999989,1,7,Long,Delay,b0
23,target,LF,1,0.734000027,1,7,Long,Delay,b0
24,target,HF,0,0.80400002,0,7,Long,Delay,b1
25,target,HF,0,0.65200001,0,7,Long,Delay,b1
26,lure,LF,0,0.667999983,1,7,Long,Delay,b1
27,lure,HF,0,0.691999972,1,7,Long,Delay,b1
28,lure,HF,0,1.139000058,1,7,Long,Delay,b1
29,lure,LF,0,0.635999978,1,7,Long,Delay,b1
30,target,LF,1,0.596000016,1,7,Long,Delay,b1
31,lure,HF,0,0.635999978,1,7,Long,Delay,b1
32,lure,HF,0,0.754999995,1,7,Long,Delay,b1
33,target,LF,1,0.602999985,1,7,Long,Delay,b1
34,lure,HF,0,1.371000051,1,7,Long,Delay,b1
35,target,HF,1,0.638999999,1,7,Long,Delay,b1
36,target,HF,1,0.768000007,1,7,Long,Delay,b1
37,target,LF,1,0.555000007,1,7,Long,Delay,b1
38,target,LF,1,0.584999979,1,7,Long,Delay,b1
39,lure,HF,0,1.68900001,1,7,Long,Delay,b1
40,target,LF,1,0.763999999,1,7,Long,Delay,b1
41,target,HF,1,0.888999999,1,7,Long,Delay,b1
42,target,HF,1,0.651000023,1,7,Long,Delay,b1
43,lure,LF,0,0.578999996,1,7,Long,Delay,b1
44,lure,LF,0,0.675999999,1,7,Long,Delay,b1
45,lure,LF,0,0.658999979,1,7,Long,Delay,b1
46,target,HF,1,0.57099998,1,7,Long,Delay,b1
47,target,LF,1,0.972000003,1,7,Long,Delay,b1
48,lure,HF,0,1.33099997,1,7,Long,Delay,b2
49,lure,HF,0,0.587000012,1,7,Long,Delay,b2
50,target,LF,0,0.546999991,0,7,Long,Delay,b2
51,lure,LF,0,0.866999984,1,7,Long,Delay,b2
52,target,HF,1,1.220000029,1,7,Long,Delay,b2
53,target,HF,1,0.611999989,1,7,Long,Delay,b2
54,target,HF,1,0.643999994,1,7,Long,Delay,b2
55,target,LF,1,0.588999987,1,7,Long,Delay,b2
56,target,LF,1,0.805000007,1,7,Long,Delay,b2
57,target,HF,1,0.875999987,1,7,Long,Delay,b2
58,target,LF,1,0.514999986,1,7,Long,Delay,b2
59,lure,LF,0,0.811999977,1,7,Long,Delay,b2
60,target,LF,0,0.690999985,0,7,Long,Delay,b2
61,lure,LF,0,1.258999944,1,7,Long,Delay,b2
62,lure,HF,0,0.643000007,1,7,Long,Delay,b2
63,target,LF,1,1.268000007,1,7,Long,Delay,b2
64,lure,LF,0,0.646000028,1,7,Long,Delay,b2
65,target,HF,1,0.595000029,1,7,Long,Delay,b2
66,target,HF,1,0.763000011,1,7,Long,Delay,b2
67,lure,LF,0,0.56400001,1,7,Long,Delay,b2
68,target,HF,1,1.243999958,1,7,Long,Delay,b2
69,lure,LF,0,0.555999994,1,7,Long,Delay,b2
70,lure,HF,0,0.620000005,1,7,Long,Delay,b2
71,lure,HF,0,0.74000001,1,7,Long,Delay,b2
72,lure,HF,0,0.635999978,1,7,Long,Delay,b3
73,lure,HF,0,0.676999986,1,7,Long,Delay,b3
74,target,LF,1,0.709999979,1,7,Long,Delay,b3
75,lure,LF,0,0.676999986,1,7,Long,Delay,b3
76,target,LF,0,0.685000002,0,7,Long,Delay,b3
77,target,HF,1,0.708999991,1,7,Long,Delay,b3
78,lure,LF,0,0.815999985,1,7,Long,Delay,b3
79,lure,HF,0,0.739000022,1,7,Long,Delay,b3
80,lure,HF,0,0.651000023,1,7,Long,Delay,b3
81,target,LF,1,1.764999986,1,7,Long,Delay,b3
82,lure,LF,0,0.602999985,1,7,Long,Delay,b3
83,target,LF,1,0.667999983,1,7,Long,Delay,b3
84,lure,LF,0,0.56400001,1,7,Long,Delay,b3
85,target,HF,0,0.620000005,0,7,Long,Delay,b3
86,lure,LF,0,1.003999949,1,7,Long,Delay,b3
87,target,LF,1,0.771000028,1,7,Long,Delay,b3
88,lure,HF,0,0.675000012,1,7,Long,Delay,b3
89,target,LF,1,0.811999977,1,7,Long,Delay,b3
90,target,LF,1,0.611000001,1,7,Long,Delay,b3
91,target,HF,1,0.72299999,1,7,Long,Delay,b3
92,lure,HF,0,1.498999953,1,7,Long,Delay,b3
93,lure,HF,0,1.442999959,1,7,Long,Delay,b3
94,target,HF,1,0.778999984,1,7,Long,Delay,b3
95,target,HF,1,0.973999977,1,7,Long,Delay,b3
0,target,HF,0,28.77799988,0,8,Long,Delay,b0
1,lure,HF,0,4.315000057,1,8,Long,Delay,b0
2,lure,HF,0,1.050999999,1,8,Long,Delay,b0
3,lure,HF,0,1.291000009,1,8,Long,Delay,b0
4,lure,HF,0,1.580000043,1,8,Long,Delay,b0
5,target,LF,1,1.588000059,1,8,Long,Delay,b0
6,target,HF,0,1.236999989,0,8,Long,Delay,b0
7,target,LF,1,1.003000021,1,8,Long,Delay,b0
8,lure,HF,0,0.995000005,1,8,Long,Delay,b0
9,target,LF,0,1.131000042,0,8,Long,Delay,b0
10,lure,HF,0,1.082999945,1,8,Long,Delay,b0
11,target,HF,0,1.059000015,0,8,Long,Delay,b0
12,lure,LF,0,0.867999971,1,8,Long,Delay,b0
13,lure,LF,0,0.763000011,1,8,Long,Delay,b0
14,target,HF,1,0.802999973,1,8,Long,Delay,b0
15,lure,LF,0,0.757000029,1,8,Long,Delay,b0
16,lure,HF,0,0.842999995,1,8,Long,Delay,b0
17,target,HF,0,2.420000076,0,8,Long,Delay,b0
18,target,LF,0,1.947999954,0,8,Long,Delay,b0
19,lure,HF,0,0.714999974,1,8,Long,Delay,b0
20,target,LF,1,1.042999983,1,8,Long,Delay,b0
21,lure,HF,0,2.578999996,1,8,Long,Delay,b0
22,target,LF,1,0.731000006,1,8,Long,Delay,b0
23,target,HF,1,1.754999995,1,8,Long,Delay,b0
24,target,LF,0,0.842999995,0,8,Long,Delay,b1
25,lure,HF,0,0.963,1,8,Long,Delay,b1
26,lure,HF,1,2.028000116,0,8,Long,Delay,b1
27,target,HF,1,1.995000005,1,8,Long,Delay,b1
28,target,LF,0,0.963,0,8,Long,Delay,b1
29,lure,LF,0,1.996000051,1,8,Long,Delay,b1
30,lure,LF,0,1.034999967,1,8,Long,Delay,b1
31,target,HF,0,1.067000031,0,8,Long,Delay,b1
32,target,HF,1,0.787,1,8,Long,Delay,b1
33,lure,LF,0,1.802999973,1,8,Long,Delay,b1
34,target,LF,1,1.986999989,1,8,Long,Delay,b1
35,target,LF,0,0.851999998,0,8,Long,Delay,b1
36,lure,LF,0,2.690999985,1,8,Long,Delay,b1
37,target,HF,0,1.274999976,0,8,Long,Delay,b1
38,lure,LF,0,0.915000021,1,8,Long,Delay,b1
39,target,LF,1,0.754999995,1,8,Long,Delay,b1
40,lure,LF,0,0.763000011,1,8,Long,Delay,b1
41,lure,LF,0,1.162999988,1,8,Long,Delay,b1
42,target,LF,1,0.883000016,1,8,Long,Delay,b1
43,lure,HF,0,0.626999974,1,8,Long,Delay,b1
44,lure,LF,0,1.059000015,1,8,Long,Delay,b1
45,lure,LF,0,1.396000028,1,8,Long,Delay,b1
46,lure,LF,1,0.89200002,0,8,Long,Delay,b1
47,target,HF,0,0.685000002,0,8,Long,Delay,b1
48,target,LF,1,0.819999993,1,8,Long,Delay,b2
49,lure,LF,0,0.860000014,1,8,Long,Delay,b2
50,target,LF,1,0.81099999,1,8,Long,Delay,b2
51,target,LF,0,0.963,0,8,Long,Delay,b2
52,lure,LF,0,3.875999928,1,8,Long,Delay,b2
53,target,LF,1,1.93900001,1,8,Long,Delay,b2
54,lure,HF,1,4.690999985,0,8,Long,Delay,b2
55,lure,LF,0,0.699999988,1,8,Long,Delay,b2
56,target,HF,0,2.147000074,0,8,Long,Delay,b2
57,target,LF,1,1.421000004,1,8,Long,Delay,b2
58,lure,HF,0,2.045000076,1,8,Long,Delay,b2
59,target,HF,1,0.819000006,1,8,Long,Delay,b2
60,lure,LF,0,0.802999973,1,8,Long,Delay,b2
61,lure,LF,0,1.299000025,1,8,Long,Delay,b2
62,target,LF,1,0.763999999,1,8,Long,Delay,b2
63,target,HF,0,2.196000099,0,8,Long,Delay,b2
64,target,LF,0,0.948000014,0,8,Long,Delay,b2
65,lure,HF,1,0.787999988,0,8,Long,Delay,b2
66,target,LF,1,0.851999998,1,8,Long,Delay,b2
67,lure,LF,0,0.746999979,1,8,Long,Delay,b2
68,lure,LF,1,3.506999969,0,8,Long,Delay,b2
69,lure,HF,0,0.827000022,1,8,Long,Delay,b2
70,lure,LF,0,0.748000026,1,8,Long,Delay,b2
71,target,HF,1,0.72299999,1,8,Long,Delay,b2
72,target,HF,0,1.493000031,0,8,Long,Delay,b3
73,lure,HF,0,0.80400002,1,8,Long,Delay,b3
74,target,HF,0,1.299999952,0,8,Long,Delay,b3
75,target,HF,0,0.74000001,0,8,Long,Delay,b3
76,lure,LF,0,0.834999979,1,8,Long,Delay,b3
77,lure,LF,0,3.411999941,1,8,Long,Delay,b3
78,target,LF,0,3.490999937,0,8,Long,Delay,b3
79,lure,HF,0,1.675999999,1,8,Long,Delay,b3
80,lure,HF,0,0.802999973,1,8,Long,Delay,b3
81,lure,HF,0,1.195000052,1,8,Long,Delay,b3
82,target,HF,1,0.851999998,1,8,Long,Delay,b3
83,target,HF,1,0.916000009,1,8,Long,Delay,b3
84,target,HF,0,1.083999991,0,8,Long,Delay,b3
85,lure,HF,0,0.851000011,1,8,Long,Delay,b3
86,target,HF,0,0.795000017,0,8,Long,Delay,b3
87,target,HF,0,0.778999984,0,8,Long,Delay,b3
88,lure,LF,0,1.97300005,1,8,Long,Delay,b3
89,lure,HF,0,0.893000007,1,8,Long,Delay,b3
90,target,LF,1,0.981000006,1,8,Long,Delay,b3
91,target,LF,1,0.839999974,1,8,Long,Delay,b3
92,target,LF,0,3.028000116,0,8,Long,Delay,b3
93,lure,HF,0,0.851000011,1,8,Long,Delay,b3
94,target,HF,0,1.236999989,0,8,Long,Delay,b3
95,lure,HF,0,1.218999982,1,8,Long,Delay,b3
0,target,LF,1,3.875,1,8,Short,Delay,b0
1,lure,HF,0,0.699000001,1,8,Short,Delay,b0
2,lure,HF,0,0.667999983,1,8,Short,Delay,b0
3,target,LF,1,0.893999994,1,8,Short,Delay,b0
4,lure,LF,0,0.907999992,1,8,Short,Delay,b0
5,target,HF,1,0.931999981,1,8,Short,Delay,b0
6,target,HF,1,0.666999996,1,8,Short,Delay,b0
7,lure,HF,0,0.883000016,1,8,Short,Delay,b0
8,lure,LF,0,0.890999973,1,8,Short,Delay,b0
9,lure,LF,0,0.907000005,1,8,Short,Delay,b0
10,lure,LF,0,0.63499999,1,8,Short,Delay,b0
11,target,HF,1,0.675000012,1,8,Short,Delay,b0
12,target,HF,1,0.763999999,1,8,Short,Delay,b0
13,lure,LF,0,1.562999964,1,8,Short,Delay,b0
14,target,LF,1,0.827000022,1,8,Short,Delay,b0
15,lure,LF,0,1.036999941,1,8,Short,Delay,b0
16,target,LF,1,0.95599997,1,8,Short,Delay,b0
17,target,HF,1,0.963999987,1,8,Short,Delay,b0
18,lure,HF,0,0.787999988,1,8,Short,Delay,b0
19,lure,HF,0,0.746999979,1,8,Short,Delay,b0
20,target,HF,0,0.666999996,0,8,Short,Delay,b0
21,target,LF,1,0.778999984,1,8,Short,Delay,b0
22,target,LF,1,0.771000028,1,8,Short,Delay,b0
23,lure,HF,0,0.802999973,1,8,Short,Delay,b0
0,lure,LF,0,2.138999939,1,8,Short,Immed,b0
1,target,LF,1,0.81099999,1,8,Short,Immed,b0
2,target,LF,0,0.690999985,0,8,Short,Immed,b0
3,target,LF,0,1.075000048,0,8,Short,Immed,b0
4,target,LF,0,0.757000029,0,8,Short,Immed,b0
5,lure,HF,0,0.741999984,1,8,Short,Immed,b0
6,target,HF,1,0.838,1,8,Short,Immed,b0
7,lure,HF,1,1.389999986,0,8,Short,Immed,b0
8,lure,HF,0,0.754999995,1,8,Short,Immed,b0
9,target,LF,1,0.731000006,1,8,Short,Immed,b0
10,lure,LF,1,1.202999949,0,8,Short,Immed,b0
11,target,HF,0,0.787,0,8,Short,Immed,b0
12,lure,LF,0,0.675000012,1,8,Short,Immed,b0
13,lure,HF,0,3.717999935,1,8,Short,Immed,b0
14,target,LF,0,1.610999942,0,8,Short,Immed,b0
15,lure,HF,0,4.379000187,1,8,Short,Immed,b0
16,lure,LF,0,0.915000021,1,8,Short,Immed,b0
17,target,HF,1,0.851999998,1,8,Short,Immed,b0
18,target,HF,1,0.778999984,1,8,Short,Immed,b0
19,target,HF,0,1.011000037,0,8,Short,Immed,b0
20,lure,LF,0,3.507999897,1,8,Short,Immed,b0
21,target,HF,1,1.891000032,1,8,Short,Immed,b0
22,lure,HF,0,1.146999955,1,8,Short,Immed,b0
23,lure,LF,0,0.787999988,1,8,Short,Immed,b0
0,lure,HF,0,2.075000048,1,8,Long,Immed,b0
1,target,HF,0,1.019999981,0,8,Long,Immed,b0
2,target,HF,1,0.819000006,1,8,Long,Immed,b0
3,lure,LF,0,0.884000003,1,8,Long,Immed,b0
4,lure,LF,0,0.834999979,1,8,Long,Immed,b0
5,target,HF,0,1.098999977,0,8,Long,Immed,b0
6,lure,LF,0,0.819000006,1,8,Long,Immed,b0
7,lure,LF,0,0.707000017,1,8,Long,Immed,b0
8,target,HF,1,0.778999984,1,8,Long,Immed,b0
9,lure,LF,0,0.707000017,1,8,Long,Immed,b0
10,lure,LF,0,0.787,1,8,Long,Immed,b0
11,target,HF,0,0.746999979,0,8,Long,Immed,b0
12,lure,HF,0,0.867999971,1,8,Long,Immed,b0
13,target,LF,1,0.749000013,1,8,Long,Immed,b0
14,target,LF,1,0.787999988,1,8,Long,Immed,b0
15,lure,LF,0,0.90200001,1,8,Long,Immed,b0
16,target,HF,1,0.876999974,1,8,Long,Immed,b0
17,lure,LF,0,1.090999961,1,8,Long,Immed,b0
18,lure,LF,0,0.930999994,1,8,Long,Immed,b0
19,target,HF,0,1.452000022,0,8,Long,Immed,b0
20,target,LF,1,0.63499999,1,8,Long,Immed,b0
21,lure,LF,0,0.939999998,1,8,Long,Immed,b0
22,target,HF,0,1.218999982,0,8,Long,Immed,b0
23,lure,HF,0,0.915000021,1,8,Long,Immed,b0
24,target,LF,0,0.746999979,0,8,Long,Immed,b1
25,lure,LF,0,2.924000025,1,8,Long,Immed,b1
26,lure,LF,0,1.164000034,1,8,Long,Immed,b1
27,lure,HF,0,0.651000023,1,8,Long,Immed,b1
28,target,HF,1,0.922999978,1,8,Long,Immed,b1
29,lure,HF,1,2.042999983,0,8,Long,Immed,b1
30,target,HF,0,1.378999949,0,8,Long,Immed,b1
31,target,HF,0,1.291000009,0,8,Long,Immed,b1
32,target,LF,0,0.819000006,0,8,Long,Immed,b1
33,lure,LF,0,0.80400002,1,8,Long,Immed,b1
34,target,LF,1,0.699000001,1,8,Long,Immed,b1
35,lure,HF,0,0.675000012,1,8,Long,Immed,b1
36,target,LF,1,0.89200002,1,8,Long,Immed,b1
37,target,LF,1,0.796999991,1,8,Long,Immed,b1
38,lure,HF,0,1.843000054,1,8,Long,Immed,b1
39,target,LF,1,0.731000006,1,8,Long,Immed,b1
40,lure,LF,1,1.708999991,0,8,Long,Immed,b1
41,lure,LF,0,1.013000011,1,8,Long,Immed,b1
42,lure,HF,0,1.309000015,1,8,Long,Immed,b1
43,target,LF,1,1.067000031,1,8,Long,Immed,b1
44,lure,HF,0,1.052000046,1,8,Long,Immed,b1
45,target,LF,0,2.194999933,0,8,Long,Immed,b1
46,lure,HF,0,0.748000026,1,8,Long,Immed,b1
47,lure,LF,0,0.779999971,1,8,Long,Immed,b1
48,lure,HF,1,0.80400002,0,8,Long,Immed,b2
49,target,LF,1,1.603000045,1,8,Long,Immed,b2
50,target,LF,1,0.866999984,1,8,Long,Immed,b2
51,lure,LF,0,0.690999985,1,8,Long,Immed,b2
52,lure,HF,0,1.154999971,1,8,Long,Immed,b2
53,lure,HF,0,0.746999979,1,8,Long,Immed,b2
54,target,HF,1,1.467000008,1,8,Long,Immed,b2
55,target,HF,1,2.052000046,1,8,Long,Immed,b2
56,lure,HF,1,6.186999798,0,8,Long,Immed,b2
57,lure,HF,0,0.658999979,1,8,Long,Immed,b2
58,lure,LF,0,1.082999945,1,8,Long,Immed,b2
59,lure,HF,0,1.075000048,1,8,Long,Immed,b2
60,target,LF,0,1.659000039,0,8,Long,Immed,b2
61,lure,HF,0,0.499000013,1,8,Long,Immed,b2
62,target,LF,1,0.723999977,1,8,Long,Immed,b2
63,lure,HF,0,0.602999985,1,8,Long,Immed,b2
64,target,HF,0,0.907999992,0,8,Long,Immed,b2
65,target,LF,0,0.80400002,0,8,Long,Immed,b2
66,target,HF,1,0.714999974,1,8,Long,Immed,b2
67,target,HF,1,0.734000027,1,8,Long,Immed,b2
68,lure,HF,1,1.547999978,0,8,Long,Immed,b2
69,target,LF,0,1.587000012,0,8,Long,Immed,b2
70,lure,LF,0,0.898999989,1,8,Long,Immed,b2
71,target,HF,0,0.883000016,0,8,Long,Immed,b2
72,lure,LF,0,4.410999775,1,8,Long,Immed,b3
73,target,HF,0,0.922999978,0,8,Long,Immed,b3
74,target,LF,1,1.508000016,1,8,Long,Immed,b3
75,target,HF,1,0.964999974,1,8,Long,Immed,b3
76,target,HF,1,0.916000009,1,8,Long,Immed,b3
77,target,LF,1,0.773000002,1,8,Long,Immed,b3
78,target,LF,0,1.003999949,0,8,Long,Immed,b3
79,target,LF,1,0.827000022,1,8,Long,Immed,b3
80,lure,LF,0,0.898999989,1,8,Long,Immed,b3
81,target,LF,1,0.851000011,1,8,Long,Immed,b3
82,lure,HF,1,0.93900001,0,8,Long,Immed,b3
83,target,HF,1,0.763000011,1,8,Long,Immed,b3
84,target,LF,0,0.93900001,0,8,Long,Immed,b3
85,target,HF,1,0.875,1,8,Long,Immed,b3
86,lure,HF,0,0.754999995,1,8,Long,Immed,b3
87,lure,LF,0,0.828000009,1,8,Long,Immed,b3
88,lure,HF,0,0.939999998,1,8,Long,Immed,b3
89,target,HF,1,0.708000004,1,8,Long,Immed,b3
90,lure,LF,0,0.660000026,1,8,Long,Immed,b3
91,target,LF,1,0.731999993,1,8,Long,Immed,b3
92,lure,HF,0,0.757000029,1,8,Long,Immed,b3
93,lure,LF,0,0.726000011,1,8,Long,Immed,b3
94,lure,HF,0,0.901000023,1,8,Long,Immed,b3
95,target,HF,0,1.452999949,0,8,Long,Immed,b3
0,target,HF,1,2.443000078,1,9,Long,Immed,b0
1,lure,HF,1,1.924000025,0,9,Long,Immed,b0
2,target,LF,1,0.883000016,1,9,Long,Immed,b0
3,target,LF,1,0.771000028,1,9,Long,Immed,b0
4,lure,HF,0,0.866999984,1,9,Long,Immed,b0
5,lure,LF,0,1.019000053,1,9,Long,Immed,b0
6,target,LF,1,1.690999985,1,9,Long,Immed,b0
7,lure,HF,0,0.930999994,1,9,Long,Immed,b0
8,target,LF,1,1.011999965,1,9,Long,Immed,b0
9,lure,LF,0,0.828000009,1,9,Long,Immed,b0
10,lure,LF,0,1.238000035,1,9,Long,Immed,b0
11,lure,HF,0,0.95599997,1,9,Long,Immed,b0
12,lure,HF,0,1.25999999,1,9,Long,Immed,b0
13,target,LF,1,0.716000021,1,9,Long,Immed,b0
14,lure,HF,0,1.549999952,1,9,Long,Immed,b0
15,lure,LF,0,0.957000017,1,9,Long,Immed,b0
16,target,LF,1,0.822000027,1,9,Long,Immed,b0
17,lure,HF,0,0.981000006,1,9,Long,Immed,b0
18,lure,LF,1,0.811999977,0,9,Long,Immed,b0
19,lure,LF,0,1.476999998,1,9,Long,Immed,b0
20,lure,HF,0,1.699000001,1,9,Long,Immed,b0
21,target,LF,1,0.763999999,1,9,Long,Immed,b0
22,target,HF,1,0.981000006,1,9,Long,Immed,b0
23,lure,HF,0,1.011999965,1,9,Long,Immed,b0
24,target,LF,1,0.771000028,1,9,Long,Immed,b1
25,lure,LF,0,1.756000042,1,9,Long,Immed,b1
26,target,HF,1,1.427999973,1,9,Long,Immed,b1
27,target,LF,1,0.787999988,1,9,Long,Immed,b1
28,target,LF,1,1.011000037,1,9,Long,Immed,b1
29,lure,HF,0,0.947000027,1,9,Long,Immed,b1
30,target,HF,1,0.731000006,1,9,Long,Immed,b1
31,target,LF,1,0.716000021,1,9,Long,Immed,b1
32,target,HF,1,0.772000015,1,9,Long,Immed,b1
33,target,HF,1,0.763999999,1,9,Long,Immed,b1
34,lure,HF,0,0.693000019,1,9,Long,Immed,b1
35,lure,LF,0,0.972000003,1,9,Long,Immed,b1
36,lure,LF,0,0.869000018,1,9,Long,Immed,b1
37,target,LF,1,0.787,1,9,Long,Immed,b1
38,lure,HF,0,2.635999918,1,9,Long,Immed,b1
39,target,HF,1,0.795000017,1,9,Long,Immed,b1
40,target,LF,1,0.795000017,1,9,Long,Immed,b1
41,target,HF,1,1.106999993,1,9,Long,Immed,b1
42,lure,HF,0,0.72299999,1,9,Long,Immed,b1
43,lure,HF,0,1.467000008,1,9,Long,Immed,b1
44,target,HF,0,1.251000047,0,9,Long,Immed,b1
45,lure,LF,0,1.276000023,1,9,Long,Immed,b1
46,target,HF,1,0.675999999,1,9,Long,Immed,b1
47,lure,HF,0,0.995999992,1,9,Long,Immed,b1
48,lure,LF,0,0.963,1,9,Long,Immed,b2
49,target,HF,1,0.658999979,1,9,Long,Immed,b2
50,lure,LF,0,1.11500001,1,9,Long,Immed,b2
51,target,LF,1,0.754999995,1,9,Long,Immed,b2
52,target,LF,1,1.514999986,1,9,Long,Immed,b2
53,lure,HF,0,1.236999989,1,9,Long,Immed,b2
54,lure,LF,0,1.031000018,1,9,Long,Immed,b2
55,target,HF,1,1.245000005,1,9,Long,Immed,b2
56,target,HF,1,0.795000017,1,9,Long,Immed,b2
57,lure,HF,0,0.931999981,1,9,Long,Immed,b2
58,lure,LF,0,0.980000019,1,9,Long,Immed,b2
59,lure,LF,0,1.10800004,1,9,Long,Immed,b2
60,lure,HF,0,0.843999982,1,9,Long,Immed,b2
61,target,HF,1,0.690999985,1,9,Long,Immed,b2
62,target,LF,1,1.195000052,1,9,Long,Immed,b2
63,target,LF,1,0.731000006,1,9,Long,Immed,b2
64,lure,LF,0,1.63499999,1,9,Long,Immed,b2
65,lure,LF,0,1.082999945,1,9,Long,Immed,b2
66,lure,HF,0,1.251000047,1,9,Long,Immed,b2
67,lure,LF,0,0.878000021,1,9,Long,Immed,b2
68,target,HF,1,0.65200001,1,9,Long,Immed,b2
69,target,HF,1,1.052000046,1,9,Long,Immed,b2
70,target,HF,1,0.815999985,1,9,Long,Immed,b2
71,target,LF,1,0.787999988,1,9,Long,Immed,b2
72,lure,HF,0,0.845000029,1,9,Long,Immed,b3
